#
# Results on Sat, 14 Jan 2023 11:35:44 GMT
# USER AGENT: Mozilla/5.0 (Linux; Android 11; SAMSUNG SM-A705FN) AppleWebKit/537.36 (KHTML, like Gecko) SamsungBrowser/19.0 Chrome/102.0.5005.125 Mobile Safari/537.36
# Design number was non-random = 0
#
# Columns below this comment are as follows:
# 1. Results reception time.
# 2. MD5 hash of participant's IP address.
# 3. Controller name.
# 4. Order number of item.
# 5. Inner element number.
# 6. Label.
# 7. Latin Square Group.
# 8. PennElementType.
# 9. PennElementName.
# 10. Parameter.
# 11. Value.
# 12. EventTime.
# 13. Comments.
1673696144,111415f830d6d879ae972d299cc09a30,PennController,1,0,Consent,NULL,PennController,0,_Trial_,Start,1673695949995,NULL
1673696144,111415f830d6d879ae972d299cc09a30,PennController,1,0,Consent,NULL,TextInput,input_name,First,,1673695963860,Unidentified
1673696144,111415f830d6d879ae972d299cc09a30,PennController,1,0,Consent,NULL,TextInput,input_name,Final,merve ,1673695969133,NULL
1673696144,111415f830d6d879ae972d299cc09a30,PennController,1,0,Consent,NULL,PennController,0,_Trial_,End,1673695969135,NULL
1673696144,111415f830d6d879ae972d299cc09a30,PennController,2,0,ExpInstructions,NULL,PennController,1,_Trial_,Start,1673695969148,NULL
1673696144,111415f830d6d879ae972d299cc09a30,PennController,2,0,ExpInstructions,NULL,PennController,1,_Trial_,End,1673695993006,NULL
1673696144,111415f830d6d879ae972d299cc09a30,PennController,3,0,PracticeInstructions,NULL,PennController,2,_Trial_,Start,1673695993011,NULL
1673696144,111415f830d6d879ae972d299cc09a30,PennController,3,0,PracticeInstructions,NULL,PennController,2,_Trial_,End,1673695995979,NULL
1673696144,111415f830d6d879ae972d299cc09a30,PennController,6,0,PracticeTrial,NULL,PennController,7,_Trial_,Start,1673695995982,NULL
1673696144,111415f830d6d879ae972d299cc09a30,PennController,6,0,PracticeTrial,NULL,Text,FlashSentence,Print,NA,1673695996252,NULL
1673696144,111415f830d6d879ae972d299cc09a30,PennController,6,0,PracticeTrial,NULL,Scale,q,Choice,3,1673696006229,NULL
1673696144,111415f830d6d879ae972d299cc09a30,PennController,6,0,PracticeTrial,NULL,PennController,7,_Trial_,End,1673696006235,NULL
1673696144,111415f830d6d879ae972d299cc09a30,PennController,4,0,PracticeTrial,NULL,PennController,5,_Trial_,Start,1673696006239,NULL
1673696144,111415f830d6d879ae972d299cc09a30,PennController,4,0,PracticeTrial,NULL,Text,FlashSentence,Print,NA,1673696006507,NULL
1673696144,111415f830d6d879ae972d299cc09a30,PennController,4,0,PracticeTrial,NULL,Scale,q,Choice,4,1673696013203,NULL
1673696144,111415f830d6d879ae972d299cc09a30,PennController,4,0,PracticeTrial,NULL,PennController,5,_Trial_,End,1673696013208,NULL
1673696144,111415f830d6d879ae972d299cc09a30,PennController,5,0,PracticeTrial,NULL,PennController,6,_Trial_,Start,1673696013212,NULL
1673696144,111415f830d6d879ae972d299cc09a30,PennController,5,0,PracticeTrial,NULL,Text,FlashSentence,Print,NA,1673696013479,NULL
1673696144,111415f830d6d879ae972d299cc09a30,PennController,5,0,PracticeTrial,NULL,Scale,q,Choice,2,1673696023932,NULL
1673696144,111415f830d6d879ae972d299cc09a30,PennController,5,0,PracticeTrial,NULL,PennController,6,_Trial_,End,1673696023940,NULL
1673696144,111415f830d6d879ae972d299cc09a30,PennController,7,0,expstarts,NULL,PennController,3,_Trial_,Start,1673696023946,NULL
1673696144,111415f830d6d879ae972d299cc09a30,PennController,7,0,expstarts,NULL,PennController,3,_Trial_,End,1673696028963,NULL
# 13. Item.
# 14. Group.
# 15. License Type.
# 16. ECM.
# 17. Comments.
1673696144,111415f830d6d879ae972d299cc09a30,PennController,20,0,Experiment,NULL,PennController,20,_Trial_,Start,1673696028980,4,1,licensed,yes,NULL
1673696144,111415f830d6d879ae972d299cc09a30,PennController,20,0,Experiment,NULL,Text,FlashSentence,Print,NA,1673696029252,4,1,licensed,yes,NULL
1673696144,111415f830d6d879ae972d299cc09a30,PennController,20,0,Experiment,NULL,Scale,q,Choice,4,1673696033847,4,1,licensed,yes,NULL
1673696144,111415f830d6d879ae972d299cc09a30,PennController,20,0,Experiment,NULL,PennController,20,_Trial_,End,1673696033853,4,1,licensed,yes,NULL
# 13. Comments.
1673696144,111415f830d6d879ae972d299cc09a30,PennController,11,0,Filler,NULL,PennController,11,_Trial_,Start,1673696033857,NULL
1673696144,111415f830d6d879ae972d299cc09a30,PennController,11,0,Filler,NULL,Text,FlashSentence,Print,NA,1673696034118,NULL
1673696144,111415f830d6d879ae972d299cc09a30,PennController,11,0,Filler,NULL,Scale,q,Choice,4,1673696041095,NULL
1673696144,111415f830d6d879ae972d299cc09a30,PennController,11,0,Filler,NULL,PennController,11,_Trial_,End,1673696041104,NULL
# 13. Item.
# 14. Group.
# 15. License Type.
# 16. ECM.
# 17. Comments.
1673696144,111415f830d6d879ae972d299cc09a30,PennController,32,0,Experiment,NULL,PennController,32,_Trial_,Start,1673696041108,16,1,licensed,yes,NULL
1673696144,111415f830d6d879ae972d299cc09a30,PennController,32,0,Experiment,NULL,Text,FlashSentence,Print,NA,1673696041381,16,1,licensed,yes,NULL
1673696144,111415f830d6d879ae972d299cc09a30,PennController,32,0,Experiment,NULL,Scale,q,Choice,2,1673696044127,16,1,licensed,yes,NULL
1673696144,111415f830d6d879ae972d299cc09a30,PennController,32,0,Experiment,NULL,PennController,32,_Trial_,End,1673696044132,16,1,licensed,yes,NULL
1673696144,111415f830d6d879ae972d299cc09a30,PennController,33,0,Experiment,NULL,PennController,33,_Trial_,Start,1673696044136,17,1,long-distance,yes,NULL
1673696144,111415f830d6d879ae972d299cc09a30,PennController,33,0,Experiment,NULL,Text,FlashSentence,Print,NA,1673696044398,17,1,long-distance,yes,NULL
1673696144,111415f830d6d879ae972d299cc09a30,PennController,33,0,Experiment,NULL,Scale,q,Choice,4,1673696048176,17,1,long-distance,yes,NULL
1673696144,111415f830d6d879ae972d299cc09a30,PennController,33,0,Experiment,NULL,PennController,33,_Trial_,End,1673696048192,17,1,long-distance,yes,NULL
# 13. Comments.
1673696144,111415f830d6d879ae972d299cc09a30,PennController,16,0,Filler,NULL,PennController,16,_Trial_,Start,1673696048199,NULL
1673696144,111415f830d6d879ae972d299cc09a30,PennController,16,0,Filler,NULL,Text,FlashSentence,Print,NA,1673696048470,NULL
1673696144,111415f830d6d879ae972d299cc09a30,PennController,16,0,Filler,NULL,Scale,q,Choice,4,1673696051985,NULL
1673696144,111415f830d6d879ae972d299cc09a30,PennController,16,0,Filler,NULL,PennController,16,_Trial_,End,1673696051988,NULL
# 13. Item.
# 14. Group.
# 15. License Type.
# 16. ECM.
# 17. Comments.
1673696144,111415f830d6d879ae972d299cc09a30,PennController,28,0,Experiment,NULL,PennController,28,_Trial_,Start,1673696051993,12,1,unlicensed,yes,NULL
1673696144,111415f830d6d879ae972d299cc09a30,PennController,28,0,Experiment,NULL,Text,FlashSentence,Print,NA,1673696052264,12,1,unlicensed,yes,NULL
1673696144,111415f830d6d879ae972d299cc09a30,PennController,28,0,Experiment,NULL,Scale,q,Choice,4,1673696058724,12,1,unlicensed,yes,NULL
1673696144,111415f830d6d879ae972d299cc09a30,PennController,28,0,Experiment,NULL,PennController,28,_Trial_,End,1673696058728,12,1,unlicensed,yes,NULL
1673696144,111415f830d6d879ae972d299cc09a30,PennController,31,0,Experiment,NULL,PennController,31,_Trial_,Start,1673696058731,15,1,unlicensed,no,NULL
1673696144,111415f830d6d879ae972d299cc09a30,PennController,31,0,Experiment,NULL,Text,FlashSentence,Print,NA,1673696058988,15,1,unlicensed,no,NULL
1673696144,111415f830d6d879ae972d299cc09a30,PennController,31,0,Experiment,NULL,Scale,q,Choice,2,1673696061448,15,1,unlicensed,no,NULL
1673696144,111415f830d6d879ae972d299cc09a30,PennController,31,0,Experiment,NULL,PennController,31,_Trial_,End,1673696061453,15,1,unlicensed,no,NULL
# 13. Comments.
1673696144,111415f830d6d879ae972d299cc09a30,PennController,12,0,Filler,NULL,PennController,12,_Trial_,Start,1673696061457,NULL
1673696144,111415f830d6d879ae972d299cc09a30,PennController,12,0,Filler,NULL,Text,FlashSentence,Print,NA,1673696061724,NULL
1673696144,111415f830d6d879ae972d299cc09a30,PennController,12,0,Filler,NULL,Scale,q,Choice,1,1673696066468,NULL
1673696144,111415f830d6d879ae972d299cc09a30,PennController,12,0,Filler,NULL,PennController,12,_Trial_,End,1673696066477,NULL
# 13. Item.
# 14. Group.
# 15. License Type.
# 16. ECM.
# 17. Comments.
1673696144,111415f830d6d879ae972d299cc09a30,PennController,18,0,Experiment,NULL,PennController,18,_Trial_,Start,1673696066484,2,1,long-distance,no,NULL
1673696144,111415f830d6d879ae972d299cc09a30,PennController,18,0,Experiment,NULL,Text,FlashSentence,Print,NA,1673696066751,2,1,long-distance,no,NULL
1673696144,111415f830d6d879ae972d299cc09a30,PennController,18,0,Experiment,NULL,Scale,q,Choice,1,1673696070084,2,1,long-distance,no,NULL
1673696144,111415f830d6d879ae972d299cc09a30,PennController,18,0,Experiment,NULL,PennController,18,_Trial_,End,1673696070088,2,1,long-distance,no,NULL
1673696144,111415f830d6d879ae972d299cc09a30,PennController,17,0,Experiment,NULL,PennController,17,_Trial_,Start,1673696070092,1,1,licensed,no,NULL
1673696144,111415f830d6d879ae972d299cc09a30,PennController,17,0,Experiment,NULL,Text,FlashSentence,Print,NA,1673696070354,1,1,licensed,no,NULL
1673696144,111415f830d6d879ae972d299cc09a30,PennController,17,0,Experiment,NULL,Scale,q,Choice,5,1673696074526,1,1,licensed,no,NULL
1673696144,111415f830d6d879ae972d299cc09a30,PennController,17,0,Experiment,NULL,PennController,17,_Trial_,End,1673696074531,1,1,licensed,no,NULL
# 13. Comments.
1673696144,111415f830d6d879ae972d299cc09a30,PennController,8,0,Filler,NULL,PennController,8,_Trial_,Start,1673696074536,NULL
1673696144,111415f830d6d879ae972d299cc09a30,PennController,8,0,Filler,NULL,Text,FlashSentence,Print,NA,1673696074799,NULL
1673696144,111415f830d6d879ae972d299cc09a30,PennController,8,0,Filler,NULL,Scale,q,Choice,5,1673696077602,NULL
1673696144,111415f830d6d879ae972d299cc09a30,PennController,8,0,Filler,NULL,PennController,8,_Trial_,End,1673696077608,NULL
# 13. Item.
# 14. Group.
# 15. License Type.
# 16. ECM.
# 17. Comments.
1673696144,111415f830d6d879ae972d299cc09a30,PennController,25,0,Experiment,NULL,PennController,25,_Trial_,Start,1673696077612,9,1,unlicensed,no,NULL
1673696144,111415f830d6d879ae972d299cc09a30,PennController,25,0,Experiment,NULL,Text,FlashSentence,Print,NA,1673696077869,9,1,unlicensed,no,NULL
1673696144,111415f830d6d879ae972d299cc09a30,PennController,25,0,Experiment,NULL,Scale,q,Choice,2,1673696081968,9,1,unlicensed,no,NULL
1673696144,111415f830d6d879ae972d299cc09a30,PennController,25,0,Experiment,NULL,PennController,25,_Trial_,End,1673696081973,9,1,unlicensed,no,NULL
1673696144,111415f830d6d879ae972d299cc09a30,PennController,21,0,Experiment,NULL,PennController,21,_Trial_,Start,1673696081976,5,1,long-distance,yes,NULL
1673696144,111415f830d6d879ae972d299cc09a30,PennController,21,0,Experiment,NULL,Text,FlashSentence,Print,NA,1673696082240,5,1,long-distance,yes,NULL
1673696144,111415f830d6d879ae972d299cc09a30,PennController,21,0,Experiment,NULL,Scale,q,Choice,5,1673696089725,5,1,long-distance,yes,NULL
1673696144,111415f830d6d879ae972d299cc09a30,PennController,21,0,Experiment,NULL,PennController,21,_Trial_,End,1673696089729,5,1,long-distance,yes,NULL
# 13. Comments.
1673696144,111415f830d6d879ae972d299cc09a30,PennController,14,0,Filler,NULL,PennController,14,_Trial_,Start,1673696089734,NULL
1673696144,111415f830d6d879ae972d299cc09a30,PennController,14,0,Filler,NULL,Text,FlashSentence,Print,NA,1673696089992,NULL
1673696144,111415f830d6d879ae972d299cc09a30,PennController,14,0,Filler,NULL,Scale,q,Choice,5,1673696093457,NULL
1673696144,111415f830d6d879ae972d299cc09a30,PennController,14,0,Filler,NULL,PennController,14,_Trial_,End,1673696093465,NULL
# 13. Item.
# 14. Group.
# 15. License Type.
# 16. ECM.
# 17. Comments.
1673696144,111415f830d6d879ae972d299cc09a30,PennController,19,0,Experiment,NULL,PennController,19,_Trial_,Start,1673696093469,3,1,unlicensed,no,NULL
1673696144,111415f830d6d879ae972d299cc09a30,PennController,19,0,Experiment,NULL,Text,FlashSentence,Print,NA,1673696093739,3,1,unlicensed,no,NULL
1673696144,111415f830d6d879ae972d299cc09a30,PennController,19,0,Experiment,NULL,Scale,q,Choice,2,1673696099005,3,1,unlicensed,no,NULL
1673696144,111415f830d6d879ae972d299cc09a30,PennController,19,0,Experiment,NULL,PennController,19,_Trial_,End,1673696099009,3,1,unlicensed,no,NULL
1673696144,111415f830d6d879ae972d299cc09a30,PennController,26,0,Experiment,NULL,PennController,26,_Trial_,Start,1673696099014,10,1,licensed,yes,NULL
1673696144,111415f830d6d879ae972d299cc09a30,PennController,26,0,Experiment,NULL,Text,FlashSentence,Print,NA,1673696099283,10,1,licensed,yes,NULL
1673696144,111415f830d6d879ae972d299cc09a30,PennController,26,0,Experiment,NULL,Scale,q,Choice,2,1673696101964,10,1,licensed,yes,NULL
1673696144,111415f830d6d879ae972d299cc09a30,PennController,26,0,Experiment,NULL,PennController,26,_Trial_,End,1673696101968,10,1,licensed,yes,NULL
# 13. Comments.
1673696144,111415f830d6d879ae972d299cc09a30,PennController,9,0,Filler,NULL,PennController,9,_Trial_,Start,1673696101972,NULL
1673696144,111415f830d6d879ae972d299cc09a30,PennController,9,0,Filler,NULL,Text,FlashSentence,Print,NA,1673696102238,NULL
1673696144,111415f830d6d879ae972d299cc09a30,PennController,9,0,Filler,NULL,Scale,q,Choice,4,1673696105944,NULL
1673696144,111415f830d6d879ae972d299cc09a30,PennController,9,0,Filler,NULL,PennController,9,_Trial_,End,1673696105948,NULL
# 13. Item.
# 14. Group.
# 15. License Type.
# 16. ECM.
# 17. Comments.
1673696144,111415f830d6d879ae972d299cc09a30,PennController,24,0,Experiment,NULL,PennController,24,_Trial_,Start,1673696105953,8,1,long-distance,no,NULL
1673696144,111415f830d6d879ae972d299cc09a30,PennController,24,0,Experiment,NULL,Text,FlashSentence,Print,NA,1673696106225,8,1,long-distance,no,NULL
1673696144,111415f830d6d879ae972d299cc09a30,PennController,24,0,Experiment,NULL,Scale,q,Choice,1,1673696109496,8,1,long-distance,no,NULL
1673696144,111415f830d6d879ae972d299cc09a30,PennController,24,0,Experiment,NULL,PennController,24,_Trial_,End,1673696109505,8,1,long-distance,no,NULL
1673696144,111415f830d6d879ae972d299cc09a30,PennController,30,0,Experiment,NULL,PennController,30,_Trial_,Start,1673696109508,14,1,long-distance,no,NULL
1673696144,111415f830d6d879ae972d299cc09a30,PennController,30,0,Experiment,NULL,Text,FlashSentence,Print,NA,1673696109767,14,1,long-distance,no,NULL
1673696144,111415f830d6d879ae972d299cc09a30,PennController,30,0,Experiment,NULL,Scale,q,Choice,4,1673696112897,14,1,long-distance,no,NULL
1673696144,111415f830d6d879ae972d299cc09a30,PennController,30,0,Experiment,NULL,PennController,30,_Trial_,End,1673696112904,14,1,long-distance,no,NULL
# 13. Comments.
1673696144,111415f830d6d879ae972d299cc09a30,PennController,10,0,Filler,NULL,PennController,10,_Trial_,Start,1673696112908,NULL
1673696144,111415f830d6d879ae972d299cc09a30,PennController,10,0,Filler,NULL,Text,FlashSentence,Print,NA,1673696113178,NULL
1673696144,111415f830d6d879ae972d299cc09a30,PennController,10,0,Filler,NULL,Scale,q,Choice,5,1673696115987,NULL
1673696144,111415f830d6d879ae972d299cc09a30,PennController,10,0,Filler,NULL,PennController,10,_Trial_,End,1673696115991,NULL
# 13. Item.
# 14. Group.
# 15. License Type.
# 16. ECM.
# 17. Comments.
1673696144,111415f830d6d879ae972d299cc09a30,PennController,34,0,Experiment,NULL,PennController,34,_Trial_,Start,1673696115996,18,1,unlicensed,yes,NULL
1673696144,111415f830d6d879ae972d299cc09a30,PennController,34,0,Experiment,NULL,Text,FlashSentence,Print,NA,1673696116258,18,1,unlicensed,yes,NULL
1673696144,111415f830d6d879ae972d299cc09a30,PennController,34,0,Experiment,NULL,Scale,q,Choice,2,1673696119429,18,1,unlicensed,yes,NULL
1673696144,111415f830d6d879ae972d299cc09a30,PennController,34,0,Experiment,NULL,PennController,34,_Trial_,End,1673696119439,18,1,unlicensed,yes,NULL
1673696144,111415f830d6d879ae972d299cc09a30,PennController,22,0,Experiment,NULL,PennController,22,_Trial_,Start,1673696119446,6,1,unlicensed,yes,NULL
1673696144,111415f830d6d879ae972d299cc09a30,PennController,22,0,Experiment,NULL,Text,FlashSentence,Print,NA,1673696119705,6,1,unlicensed,yes,NULL
1673696144,111415f830d6d879ae972d299cc09a30,PennController,22,0,Experiment,NULL,Scale,q,Choice,2,1673696122106,6,1,unlicensed,yes,NULL
1673696144,111415f830d6d879ae972d299cc09a30,PennController,22,0,Experiment,NULL,PennController,22,_Trial_,End,1673696122111,6,1,unlicensed,yes,NULL
# 13. Comments.
1673696144,111415f830d6d879ae972d299cc09a30,PennController,15,0,Filler,NULL,PennController,15,_Trial_,Start,1673696122115,NULL
1673696144,111415f830d6d879ae972d299cc09a30,PennController,15,0,Filler,NULL,Text,FlashSentence,Print,NA,1673696122379,NULL
1673696144,111415f830d6d879ae972d299cc09a30,PennController,15,0,Filler,NULL,Scale,q,Choice,4,1673696126384,NULL
1673696144,111415f830d6d879ae972d299cc09a30,PennController,15,0,Filler,NULL,PennController,15,_Trial_,End,1673696126389,NULL
# 13. Item.
# 14. Group.
# 15. License Type.
# 16. ECM.
# 17. Comments.
1673696144,111415f830d6d879ae972d299cc09a30,PennController,27,0,Experiment,NULL,PennController,27,_Trial_,Start,1673696126393,11,1,long-distance,yes,NULL
1673696144,111415f830d6d879ae972d299cc09a30,PennController,27,0,Experiment,NULL,Text,FlashSentence,Print,NA,1673696126660,11,1,long-distance,yes,NULL
1673696144,111415f830d6d879ae972d299cc09a30,PennController,27,0,Experiment,NULL,Scale,q,Choice,4,1673696131408,11,1,long-distance,yes,NULL
1673696144,111415f830d6d879ae972d299cc09a30,PennController,27,0,Experiment,NULL,PennController,27,_Trial_,End,1673696131413,11,1,long-distance,yes,NULL
1673696144,111415f830d6d879ae972d299cc09a30,PennController,23,0,Experiment,NULL,PennController,23,_Trial_,Start,1673696131416,7,1,licensed,no,NULL
1673696144,111415f830d6d879ae972d299cc09a30,PennController,23,0,Experiment,NULL,Text,FlashSentence,Print,NA,1673696131673,7,1,licensed,no,NULL
1673696144,111415f830d6d879ae972d299cc09a30,PennController,23,0,Experiment,NULL,Scale,q,Choice,4,1673696137765,7,1,licensed,no,NULL
1673696144,111415f830d6d879ae972d299cc09a30,PennController,23,0,Experiment,NULL,PennController,23,_Trial_,End,1673696137770,7,1,licensed,no,NULL
# 13. Comments.
1673696144,111415f830d6d879ae972d299cc09a30,PennController,13,0,Filler,NULL,PennController,13,_Trial_,Start,1673696137774,NULL
1673696144,111415f830d6d879ae972d299cc09a30,PennController,13,0,Filler,NULL,Text,FlashSentence,Print,NA,1673696138042,NULL
1673696144,111415f830d6d879ae972d299cc09a30,PennController,13,0,Filler,NULL,Scale,q,Choice,4,1673696139874,NULL
1673696144,111415f830d6d879ae972d299cc09a30,PennController,13,0,Filler,NULL,PennController,13,_Trial_,End,1673696139881,NULL
# 13. Item.
# 14. Group.
# 15. License Type.
# 16. ECM.
# 17. Comments.
1673696144,111415f830d6d879ae972d299cc09a30,PennController,29,0,Experiment,NULL,PennController,29,_Trial_,Start,1673696139886,13,1,licensed,no,NULL
1673696144,111415f830d6d879ae972d299cc09a30,PennController,29,0,Experiment,NULL,Text,FlashSentence,Print,NA,1673696140147,13,1,licensed,no,NULL
1673696144,111415f830d6d879ae972d299cc09a30,PennController,29,0,Experiment,NULL,Scale,q,Choice,4,1673696142885,13,1,licensed,no,NULL
1673696144,111415f830d6d879ae972d299cc09a30,PennController,29,0,Experiment,NULL,PennController,29,_Trial_,End,1673696142890,13,1,licensed,no,NULL
#
# Results on Sat, 14 Jan 2023 11:47:12 GMT
# USER AGENT: Mozilla/5.0 (Linux; Android 11; CPH1951) AppleWebKit/537.36 (KHTML, like Gecko) Chrome/108.0.0.0 Mobile Safari/537.36
# Design number was non-random = 1
#
# Columns below this comment are as follows:
# 1. Results reception time.
# 2. MD5 hash of participant's IP address.
# 3. Controller name.
# 4. Order number of item.
# 5. Inner element number.
# 6. Label.
# 7. Latin Square Group.
# 8. PennElementType.
# 9. PennElementName.
# 10. Parameter.
# 11. Value.
# 12. EventTime.
# 13. Comments.
1673696832,008d2c5209593bdf5f60be8eee0696b5,PennController,1,0,Consent,NULL,PennController,0,_Trial_,Start,1673696510200,NULL
1673696832,008d2c5209593bdf5f60be8eee0696b5,PennController,1,0,Consent,NULL,TextInput,input_name,First,,1673696529935,Unidentified
1673696832,008d2c5209593bdf5f60be8eee0696b5,PennController,1,0,Consent,NULL,TextInput,input_name,Final,Melek Merve Gündoğdu ,1673696534418,NULL
1673696832,008d2c5209593bdf5f60be8eee0696b5,PennController,1,0,Consent,NULL,PennController,0,_Trial_,End,1673696534420,NULL
1673696832,008d2c5209593bdf5f60be8eee0696b5,PennController,2,0,ExpInstructions,NULL,PennController,1,_Trial_,Start,1673696534432,NULL
1673696832,008d2c5209593bdf5f60be8eee0696b5,PennController,2,0,ExpInstructions,NULL,PennController,1,_Trial_,End,1673696537457,NULL
1673696832,008d2c5209593bdf5f60be8eee0696b5,PennController,3,0,PracticeInstructions,NULL,PennController,2,_Trial_,Start,1673696537466,NULL
1673696832,008d2c5209593bdf5f60be8eee0696b5,PennController,3,0,PracticeInstructions,NULL,PennController,2,_Trial_,End,1673696538939,NULL
1673696832,008d2c5209593bdf5f60be8eee0696b5,PennController,4,0,PracticeTrial,NULL,PennController,5,_Trial_,Start,1673696538950,NULL
1673696832,008d2c5209593bdf5f60be8eee0696b5,PennController,4,0,PracticeTrial,NULL,Text,FlashSentence,Print,NA,1673696539215,NULL
1673696832,008d2c5209593bdf5f60be8eee0696b5,PennController,4,0,PracticeTrial,NULL,Scale,q,Choice,3,1673696549459,NULL
1673696832,008d2c5209593bdf5f60be8eee0696b5,PennController,4,0,PracticeTrial,NULL,PennController,5,_Trial_,End,1673696549467,NULL
1673696832,008d2c5209593bdf5f60be8eee0696b5,PennController,5,0,PracticeTrial,NULL,PennController,6,_Trial_,Start,1673696549475,NULL
1673696832,008d2c5209593bdf5f60be8eee0696b5,PennController,5,0,PracticeTrial,NULL,Text,FlashSentence,Print,NA,1673696549734,NULL
1673696832,008d2c5209593bdf5f60be8eee0696b5,PennController,5,0,PracticeTrial,NULL,Scale,q,Choice,4,1673696570005,NULL
1673696832,008d2c5209593bdf5f60be8eee0696b5,PennController,5,0,PracticeTrial,NULL,PennController,6,_Trial_,End,1673696570016,NULL
1673696832,008d2c5209593bdf5f60be8eee0696b5,PennController,6,0,PracticeTrial,NULL,PennController,7,_Trial_,Start,1673696570024,NULL
1673696832,008d2c5209593bdf5f60be8eee0696b5,PennController,6,0,PracticeTrial,NULL,Text,FlashSentence,Print,NA,1673696570288,NULL
1673696832,008d2c5209593bdf5f60be8eee0696b5,PennController,6,0,PracticeTrial,NULL,Scale,q,Choice,2,1673696576997,NULL
1673696832,008d2c5209593bdf5f60be8eee0696b5,PennController,6,0,PracticeTrial,NULL,PennController,7,_Trial_,End,1673696577007,NULL
1673696832,008d2c5209593bdf5f60be8eee0696b5,PennController,7,0,expstarts,NULL,PennController,3,_Trial_,Start,1673696577015,NULL
1673696832,008d2c5209593bdf5f60be8eee0696b5,PennController,7,0,expstarts,NULL,PennController,3,_Trial_,End,1673696582034,NULL
# 13. Item.
# 14. Group.
# 15. License Type.
# 16. ECM.
# 17. Comments.
1673696832,008d2c5209593bdf5f60be8eee0696b5,PennController,25,0,Experiment,NULL,PennController,25,_Trial_,Start,1673696582044,9,2,licensed,yes,NULL
1673696832,008d2c5209593bdf5f60be8eee0696b5,PennController,25,0,Experiment,NULL,Text,FlashSentence,Print,NA,1673696582310,9,2,licensed,yes,NULL
1673696832,008d2c5209593bdf5f60be8eee0696b5,PennController,25,0,Experiment,NULL,Scale,q,Choice,3,1673696606162,9,2,licensed,yes,NULL
1673696832,008d2c5209593bdf5f60be8eee0696b5,PennController,25,0,Experiment,NULL,PennController,25,_Trial_,End,1673696606167,9,2,licensed,yes,NULL
1673696832,008d2c5209593bdf5f60be8eee0696b5,PennController,23,0,Experiment,NULL,PennController,23,_Trial_,Start,1673696606173,7,2,long-distance,no,NULL
1673696832,008d2c5209593bdf5f60be8eee0696b5,PennController,23,0,Experiment,NULL,Text,FlashSentence,Print,NA,1673696606430,7,2,long-distance,no,NULL
1673696832,008d2c5209593bdf5f60be8eee0696b5,PennController,23,0,Experiment,NULL,Scale,q,Choice,4,1673696612942,7,2,long-distance,no,NULL
1673696832,008d2c5209593bdf5f60be8eee0696b5,PennController,23,0,Experiment,NULL,PennController,23,_Trial_,End,1673696612951,7,2,long-distance,no,NULL
# 13. Comments.
1673696832,008d2c5209593bdf5f60be8eee0696b5,PennController,11,0,Filler,NULL,PennController,11,_Trial_,Start,1673696612960,NULL
1673696832,008d2c5209593bdf5f60be8eee0696b5,PennController,11,0,Filler,NULL,Text,FlashSentence,Print,NA,1673696613221,NULL
1673696832,008d2c5209593bdf5f60be8eee0696b5,PennController,11,0,Filler,NULL,Scale,q,Choice,2,1673696628711,NULL
1673696832,008d2c5209593bdf5f60be8eee0696b5,PennController,11,0,Filler,NULL,PennController,11,_Trial_,End,1673696628720,NULL
# 13. Item.
# 14. Group.
# 15. License Type.
# 16. ECM.
# 17. Comments.
1673696832,008d2c5209593bdf5f60be8eee0696b5,PennController,24,0,Experiment,NULL,PennController,24,_Trial_,Start,1673696628730,8,2,unlicensed,no,NULL
1673696832,008d2c5209593bdf5f60be8eee0696b5,PennController,24,0,Experiment,NULL,Text,FlashSentence,Print,NA,1673696628994,8,2,unlicensed,no,NULL
1673696832,008d2c5209593bdf5f60be8eee0696b5,PennController,24,0,Experiment,NULL,Scale,q,Choice,1,1673696647846,8,2,unlicensed,no,NULL
1673696832,008d2c5209593bdf5f60be8eee0696b5,PennController,24,0,Experiment,NULL,PennController,24,_Trial_,End,1673696647856,8,2,unlicensed,no,NULL
1673696832,008d2c5209593bdf5f60be8eee0696b5,PennController,26,0,Experiment,NULL,PennController,26,_Trial_,Start,1673696647864,10,2,long-distance,yes,NULL
1673696832,008d2c5209593bdf5f60be8eee0696b5,PennController,26,0,Experiment,NULL,Text,FlashSentence,Print,NA,1673696648127,10,2,long-distance,yes,NULL
1673696832,008d2c5209593bdf5f60be8eee0696b5,PennController,26,0,Experiment,NULL,Scale,q,Choice,4,1673696658741,10,2,long-distance,yes,NULL
1673696832,008d2c5209593bdf5f60be8eee0696b5,PennController,26,0,Experiment,NULL,PennController,26,_Trial_,End,1673696658750,10,2,long-distance,yes,NULL
# 13. Comments.
1673696832,008d2c5209593bdf5f60be8eee0696b5,PennController,9,0,Filler,NULL,PennController,9,_Trial_,Start,1673696658759,NULL
1673696832,008d2c5209593bdf5f60be8eee0696b5,PennController,9,0,Filler,NULL,Text,FlashSentence,Print,NA,1673696659021,NULL
1673696832,008d2c5209593bdf5f60be8eee0696b5,PennController,9,0,Filler,NULL,Scale,q,Choice,3,1673696666366,NULL
1673696832,008d2c5209593bdf5f60be8eee0696b5,PennController,9,0,Filler,NULL,PennController,9,_Trial_,End,1673696666377,NULL
# 13. Item.
# 14. Group.
# 15. License Type.
# 16. ECM.
# 17. Comments.
1673696832,008d2c5209593bdf5f60be8eee0696b5,PennController,30,0,Experiment,NULL,PennController,30,_Trial_,Start,1673696666384,14,2,unlicensed,no,NULL
1673696832,008d2c5209593bdf5f60be8eee0696b5,PennController,30,0,Experiment,NULL,Text,FlashSentence,Print,NA,1673696666647,14,2,unlicensed,no,NULL
1673696832,008d2c5209593bdf5f60be8eee0696b5,PennController,30,0,Experiment,NULL,Scale,q,Choice,2,1673696673757,14,2,unlicensed,no,NULL
1673696832,008d2c5209593bdf5f60be8eee0696b5,PennController,30,0,Experiment,NULL,PennController,30,_Trial_,End,1673696673766,14,2,unlicensed,no,NULL
1673696832,008d2c5209593bdf5f60be8eee0696b5,PennController,31,0,Experiment,NULL,PennController,31,_Trial_,Start,1673696673775,15,2,licensed,yes,NULL
1673696832,008d2c5209593bdf5f60be8eee0696b5,PennController,31,0,Experiment,NULL,Text,FlashSentence,Print,NA,1673696674039,15,2,licensed,yes,NULL
1673696832,008d2c5209593bdf5f60be8eee0696b5,PennController,31,0,Experiment,NULL,Scale,q,Choice,2,1673696680624,15,2,licensed,yes,NULL
1673696832,008d2c5209593bdf5f60be8eee0696b5,PennController,31,0,Experiment,NULL,PennController,31,_Trial_,End,1673696680632,15,2,licensed,yes,NULL
# 13. Comments.
1673696832,008d2c5209593bdf5f60be8eee0696b5,PennController,14,0,Filler,NULL,PennController,14,_Trial_,Start,1673696680641,NULL
1673696832,008d2c5209593bdf5f60be8eee0696b5,PennController,14,0,Filler,NULL,Text,FlashSentence,Print,NA,1673696680902,NULL
1673696832,008d2c5209593bdf5f60be8eee0696b5,PennController,14,0,Filler,NULL,Scale,q,Choice,2,1673696687910,NULL
1673696832,008d2c5209593bdf5f60be8eee0696b5,PennController,14,0,Filler,NULL,PennController,14,_Trial_,End,1673696687919,NULL
# 13. Item.
# 14. Group.
# 15. License Type.
# 16. ECM.
# 17. Comments.
1673696832,008d2c5209593bdf5f60be8eee0696b5,PennController,20,0,Experiment,NULL,PennController,20,_Trial_,Start,1673696687927,4,2,long-distance,yes,NULL
1673696832,008d2c5209593bdf5f60be8eee0696b5,PennController,20,0,Experiment,NULL,Text,FlashSentence,Print,NA,1673696688190,4,2,long-distance,yes,NULL
1673696832,008d2c5209593bdf5f60be8eee0696b5,PennController,20,0,Experiment,NULL,Scale,q,Choice,2,1673696692295,4,2,long-distance,yes,NULL
1673696832,008d2c5209593bdf5f60be8eee0696b5,PennController,20,0,Experiment,NULL,PennController,20,_Trial_,End,1673696692305,4,2,long-distance,yes,NULL
1673696832,008d2c5209593bdf5f60be8eee0696b5,PennController,18,0,Experiment,NULL,PennController,18,_Trial_,Start,1673696692313,2,2,unlicensed,no,NULL
1673696832,008d2c5209593bdf5f60be8eee0696b5,PennController,18,0,Experiment,NULL,Text,FlashSentence,Print,NA,1673696692578,2,2,unlicensed,no,NULL
1673696832,008d2c5209593bdf5f60be8eee0696b5,PennController,18,0,Experiment,NULL,Scale,q,Choice,1,1673696698742,2,2,unlicensed,no,NULL
1673696832,008d2c5209593bdf5f60be8eee0696b5,PennController,18,0,Experiment,NULL,PennController,18,_Trial_,End,1673696698752,2,2,unlicensed,no,NULL
# 13. Comments.
1673696832,008d2c5209593bdf5f60be8eee0696b5,PennController,10,0,Filler,NULL,PennController,10,_Trial_,Start,1673696698761,NULL
1673696832,008d2c5209593bdf5f60be8eee0696b5,PennController,10,0,Filler,NULL,Text,FlashSentence,Print,NA,1673696699022,NULL
1673696832,008d2c5209593bdf5f60be8eee0696b5,PennController,10,0,Filler,NULL,Scale,q,Choice,2,1673696706390,NULL
1673696832,008d2c5209593bdf5f60be8eee0696b5,PennController,10,0,Filler,NULL,PennController,10,_Trial_,End,1673696706400,NULL
# 13. Item.
# 14. Group.
# 15. License Type.
# 16. ECM.
# 17. Comments.
1673696832,008d2c5209593bdf5f60be8eee0696b5,PennController,27,0,Experiment,NULL,PennController,27,_Trial_,Start,1673696706409,11,2,unlicensed,yes,NULL
1673696832,008d2c5209593bdf5f60be8eee0696b5,PennController,27,0,Experiment,NULL,Text,FlashSentence,Print,NA,1673696706669,11,2,unlicensed,yes,NULL
1673696832,008d2c5209593bdf5f60be8eee0696b5,PennController,27,0,Experiment,NULL,Scale,q,Choice,2,1673696715854,11,2,unlicensed,yes,NULL
1673696832,008d2c5209593bdf5f60be8eee0696b5,PennController,27,0,Experiment,NULL,PennController,27,_Trial_,End,1673696715864,11,2,unlicensed,yes,NULL
1673696832,008d2c5209593bdf5f60be8eee0696b5,PennController,21,0,Experiment,NULL,PennController,21,_Trial_,Start,1673696715878,5,2,unlicensed,yes,NULL
1673696832,008d2c5209593bdf5f60be8eee0696b5,PennController,21,0,Experiment,NULL,Text,FlashSentence,Print,NA,1673696716139,5,2,unlicensed,yes,NULL
1673696832,008d2c5209593bdf5f60be8eee0696b5,PennController,21,0,Experiment,NULL,Scale,q,Choice,2,1673696718663,5,2,unlicensed,yes,NULL
1673696832,008d2c5209593bdf5f60be8eee0696b5,PennController,21,0,Experiment,NULL,PennController,21,_Trial_,End,1673696718672,5,2,unlicensed,yes,NULL
# 13. Comments.
1673696832,008d2c5209593bdf5f60be8eee0696b5,PennController,15,0,Filler,NULL,PennController,15,_Trial_,Start,1673696718679,NULL
1673696832,008d2c5209593bdf5f60be8eee0696b5,PennController,15,0,Filler,NULL,Text,FlashSentence,Print,NA,1673696718946,NULL
1673696832,008d2c5209593bdf5f60be8eee0696b5,PennController,15,0,Filler,NULL,Scale,q,Choice,2,1673696732117,NULL
1673696832,008d2c5209593bdf5f60be8eee0696b5,PennController,15,0,Filler,NULL,PennController,15,_Trial_,End,1673696732127,NULL
# 13. Item.
# 14. Group.
# 15. License Type.
# 16. ECM.
# 17. Comments.
1673696832,008d2c5209593bdf5f60be8eee0696b5,PennController,19,0,Experiment,NULL,PennController,19,_Trial_,Start,1673696732133,3,2,licensed,yes,NULL
1673696832,008d2c5209593bdf5f60be8eee0696b5,PennController,19,0,Experiment,NULL,Text,FlashSentence,Print,NA,1673696732398,3,2,licensed,yes,NULL
1673696832,008d2c5209593bdf5f60be8eee0696b5,PennController,19,0,Experiment,NULL,Scale,q,Choice,3,1673696736989,3,2,licensed,yes,NULL
1673696832,008d2c5209593bdf5f60be8eee0696b5,PennController,19,0,Experiment,NULL,PennController,19,_Trial_,End,1673696736998,3,2,licensed,yes,NULL
1673696832,008d2c5209593bdf5f60be8eee0696b5,PennController,29,0,Experiment,NULL,PennController,29,_Trial_,Start,1673696737005,13,2,long-distance,no,NULL
1673696832,008d2c5209593bdf5f60be8eee0696b5,PennController,29,0,Experiment,NULL,Text,FlashSentence,Print,NA,1673696737271,13,2,long-distance,no,NULL
1673696832,008d2c5209593bdf5f60be8eee0696b5,PennController,29,0,Experiment,NULL,Scale,q,Choice,4,1673696743270,13,2,long-distance,no,NULL
1673696832,008d2c5209593bdf5f60be8eee0696b5,PennController,29,0,Experiment,NULL,PennController,29,_Trial_,End,1673696743280,13,2,long-distance,no,NULL
# 13. Comments.
1673696832,008d2c5209593bdf5f60be8eee0696b5,PennController,8,0,Filler,NULL,PennController,8,_Trial_,Start,1673696743286,NULL
1673696832,008d2c5209593bdf5f60be8eee0696b5,PennController,8,0,Filler,NULL,Text,FlashSentence,Print,NA,1673696743552,NULL
1673696832,008d2c5209593bdf5f60be8eee0696b5,PennController,8,0,Filler,NULL,Scale,q,Choice,5,1673696748015,NULL
1673696832,008d2c5209593bdf5f60be8eee0696b5,PennController,8,0,Filler,NULL,PennController,8,_Trial_,End,1673696748025,NULL
# 13. Item.
# 14. Group.
# 15. License Type.
# 16. ECM.
# 17. Comments.
1673696832,008d2c5209593bdf5f60be8eee0696b5,PennController,33,0,Experiment,NULL,PennController,33,_Trial_,Start,1673696748031,17,2,unlicensed,yes,NULL
1673696832,008d2c5209593bdf5f60be8eee0696b5,PennController,33,0,Experiment,NULL,Text,FlashSentence,Print,NA,1673696748296,17,2,unlicensed,yes,NULL
1673696832,008d2c5209593bdf5f60be8eee0696b5,PennController,33,0,Experiment,NULL,Scale,q,Choice,2,1673696752510,17,2,unlicensed,yes,NULL
1673696832,008d2c5209593bdf5f60be8eee0696b5,PennController,33,0,Experiment,NULL,PennController,33,_Trial_,End,1673696752520,17,2,unlicensed,yes,NULL
1673696832,008d2c5209593bdf5f60be8eee0696b5,PennController,34,0,Experiment,NULL,PennController,34,_Trial_,Start,1673696752531,18,2,unlicensed,no,NULL
1673696832,008d2c5209593bdf5f60be8eee0696b5,PennController,34,0,Experiment,NULL,Text,FlashSentence,Print,NA,1673696752794,18,2,licensed,no,NULL
1673696832,008d2c5209593bdf5f60be8eee0696b5,PennController,34,0,Experiment,NULL,Scale,q,Choice,1,1673696756254,18,2,licensed,no,NULL
1673696832,008d2c5209593bdf5f60be8eee0696b5,PennController,34,0,Experiment,NULL,PennController,34,_Trial_,End,1673696756264,18,2,unlicensed,no,NULL
# 13. Comments.
1673696832,008d2c5209593bdf5f60be8eee0696b5,PennController,16,0,Filler,NULL,PennController,16,_Trial_,Start,1673696756271,NULL
1673696832,008d2c5209593bdf5f60be8eee0696b5,PennController,16,0,Filler,NULL,Text,FlashSentence,Print,NA,1673696756535,NULL
1673696832,008d2c5209593bdf5f60be8eee0696b5,PennController,16,0,Filler,NULL,Scale,q,Choice,5,1673696760437,NULL
1673696832,008d2c5209593bdf5f60be8eee0696b5,PennController,16,0,Filler,NULL,PennController,16,_Trial_,End,1673696760447,NULL
# 13. Item.
# 14. Group.
# 15. License Type.
# 16. ECM.
# 17. Comments.
1673696832,008d2c5209593bdf5f60be8eee0696b5,PennController,22,0,Experiment,NULL,PennController,22,_Trial_,Start,1673696760455,6,2,licensed,no,NULL
1673696832,008d2c5209593bdf5f60be8eee0696b5,PennController,22,0,Experiment,NULL,Text,FlashSentence,Print,NA,1673696760716,6,2,licensed,no,NULL
1673696832,008d2c5209593bdf5f60be8eee0696b5,PennController,22,0,Experiment,NULL,Scale,q,Choice,5,1673696763694,6,2,licensed,no,NULL
1673696832,008d2c5209593bdf5f60be8eee0696b5,PennController,22,0,Experiment,NULL,PennController,22,_Trial_,End,1673696763703,6,2,licensed,no,NULL
1673696832,008d2c5209593bdf5f60be8eee0696b5,PennController,32,0,Experiment,NULL,PennController,32,_Trial_,Start,1673696763710,16,2,long-distance,yes,NULL
1673696832,008d2c5209593bdf5f60be8eee0696b5,PennController,32,0,Experiment,NULL,Text,FlashSentence,Print,NA,1673696763974,16,2,long-distance,yes,NULL
1673696832,008d2c5209593bdf5f60be8eee0696b5,PennController,32,0,Experiment,NULL,Scale,q,Choice,1,1673696767239,16,2,long-distance,yes,NULL
1673696832,008d2c5209593bdf5f60be8eee0696b5,PennController,32,0,Experiment,NULL,PennController,32,_Trial_,End,1673696767249,16,2,long-distance,yes,NULL
# 13. Comments.
1673696832,008d2c5209593bdf5f60be8eee0696b5,PennController,13,0,Filler,NULL,PennController,13,_Trial_,Start,1673696767256,NULL
1673696832,008d2c5209593bdf5f60be8eee0696b5,PennController,13,0,Filler,NULL,Text,FlashSentence,Print,NA,1673696767519,NULL
1673696832,008d2c5209593bdf5f60be8eee0696b5,PennController,13,0,Filler,NULL,Scale,q,Choice,5,1673696770789,NULL
1673696832,008d2c5209593bdf5f60be8eee0696b5,PennController,13,0,Filler,NULL,PennController,13,_Trial_,End,1673696770799,NULL
# 13. Item.
# 14. Group.
# 15. License Type.
# 16. ECM.
# 17. Comments.
1673696832,008d2c5209593bdf5f60be8eee0696b5,PennController,17,0,Experiment,NULL,PennController,17,_Trial_,Start,1673696770807,1,2,long-distance,no,NULL
1673696832,008d2c5209593bdf5f60be8eee0696b5,PennController,17,0,Experiment,NULL,Text,FlashSentence,Print,NA,1673696771070,1,2,long-distance,no,NULL
1673696832,008d2c5209593bdf5f60be8eee0696b5,PennController,17,0,Experiment,NULL,Scale,q,Choice,1,1673696774318,1,2,long-distance,no,NULL
1673696832,008d2c5209593bdf5f60be8eee0696b5,PennController,17,0,Experiment,NULL,PennController,17,_Trial_,End,1673696774329,1,2,long-distance,no,NULL
1673696832,008d2c5209593bdf5f60be8eee0696b5,PennController,28,0,Experiment,NULL,PennController,28,_Trial_,Start,1673696774335,12,2,licensed,no,NULL
1673696832,008d2c5209593bdf5f60be8eee0696b5,PennController,28,0,Experiment,NULL,Text,FlashSentence,Print,NA,1673696774598,12,2,licensed,no,NULL
1673696832,008d2c5209593bdf5f60be8eee0696b5,PennController,28,0,Experiment,NULL,Scale,q,Choice,1,1673696776886,12,2,licensed,no,NULL
1673696832,008d2c5209593bdf5f60be8eee0696b5,PennController,28,0,Experiment,NULL,PennController,28,_Trial_,End,1673696776897,12,2,licensed,no,NULL
# 13. Comments.
1673696832,008d2c5209593bdf5f60be8eee0696b5,PennController,12,0,Filler,NULL,PennController,12,_Trial_,Start,1673696776904,NULL
1673696832,008d2c5209593bdf5f60be8eee0696b5,PennController,12,0,Filler,NULL,Text,FlashSentence,Print,NA,1673696777169,NULL
1673696832,008d2c5209593bdf5f60be8eee0696b5,PennController,12,0,Filler,NULL,Scale,q,Choice,1,1673696798575,NULL
1673696832,008d2c5209593bdf5f60be8eee0696b5,PennController,12,0,Filler,NULL,PennController,12,_Trial_,End,1673696798584,NULL
#
# Results on Sat, 14 Jan 2023 11:53:08 GMT
# USER AGENT: Mozilla/5.0 (iPhone; CPU iPhone OS 16_1_2 like Mac OS X) AppleWebKit/605.1.15 (KHTML, like Gecko) Version/16.1 Mobile/15E148 Safari/604.1
# Design number was non-random = 2
#
# Columns below this comment are as follows:
# 1. Results reception time.
# 2. MD5 hash of participant's IP address.
# 3. Controller name.
# 4. Order number of item.
# 5. Inner element number.
# 6. Label.
# 7. Latin Square Group.
# 8. PennElementType.
# 9. PennElementName.
# 10. Parameter.
# 11. Value.
# 12. EventTime.
# 13. Comments.
1673697188,28aa9717ed0dcc7ba01cc2e5713a3ca4,PennController,1,0,Consent,NULL,PennController,0,_Trial_,Start,1673696918065,NULL
1673697188,28aa9717ed0dcc7ba01cc2e5713a3ca4,PennController,1,0,Consent,NULL,TextInput,input_name,First,,1673696936263,Shift
1673697188,28aa9717ed0dcc7ba01cc2e5713a3ca4,PennController,1,0,Consent,NULL,TextInput,input_name,Final,Bedirhan Kondi,1673696940822,NULL
1673697188,28aa9717ed0dcc7ba01cc2e5713a3ca4,PennController,1,0,Consent,NULL,PennController,0,_Trial_,End,1673696940822,NULL
1673697188,28aa9717ed0dcc7ba01cc2e5713a3ca4,PennController,2,0,ExpInstructions,NULL,PennController,1,_Trial_,Start,1673696940829,NULL
1673697188,28aa9717ed0dcc7ba01cc2e5713a3ca4,PennController,2,0,ExpInstructions,NULL,PennController,1,_Trial_,End,1673696982267,NULL
1673697188,28aa9717ed0dcc7ba01cc2e5713a3ca4,PennController,3,0,PracticeInstructions,NULL,PennController,2,_Trial_,Start,1673696982272,NULL
1673697188,28aa9717ed0dcc7ba01cc2e5713a3ca4,PennController,3,0,PracticeInstructions,NULL,PennController,2,_Trial_,End,1673696988622,NULL
1673697188,28aa9717ed0dcc7ba01cc2e5713a3ca4,PennController,5,0,PracticeTrial,NULL,PennController,6,_Trial_,Start,1673696988624,NULL
1673697188,28aa9717ed0dcc7ba01cc2e5713a3ca4,PennController,5,0,PracticeTrial,NULL,Text,FlashSentence,Print,NA,1673696988886,NULL
1673697188,28aa9717ed0dcc7ba01cc2e5713a3ca4,PennController,5,0,PracticeTrial,NULL,Scale,q,Choice,3,1673697000873,NULL
1673697188,28aa9717ed0dcc7ba01cc2e5713a3ca4,PennController,5,0,PracticeTrial,NULL,PennController,6,_Trial_,End,1673697000877,NULL
1673697188,28aa9717ed0dcc7ba01cc2e5713a3ca4,PennController,6,0,PracticeTrial,NULL,PennController,7,_Trial_,Start,1673697000881,NULL
1673697188,28aa9717ed0dcc7ba01cc2e5713a3ca4,PennController,6,0,PracticeTrial,NULL,Text,FlashSentence,Print,NA,1673697001136,NULL
1673697188,28aa9717ed0dcc7ba01cc2e5713a3ca4,PennController,6,0,PracticeTrial,NULL,Scale,q,Choice,2,1673697006679,NULL
1673697188,28aa9717ed0dcc7ba01cc2e5713a3ca4,PennController,6,0,PracticeTrial,NULL,PennController,7,_Trial_,End,1673697006682,NULL
1673697188,28aa9717ed0dcc7ba01cc2e5713a3ca4,PennController,4,0,PracticeTrial,NULL,PennController,5,_Trial_,Start,1673697006686,NULL
1673697188,28aa9717ed0dcc7ba01cc2e5713a3ca4,PennController,4,0,PracticeTrial,NULL,Text,FlashSentence,Print,NA,1673697006941,NULL
1673697188,28aa9717ed0dcc7ba01cc2e5713a3ca4,PennController,4,0,PracticeTrial,NULL,Scale,q,Choice,5,1673697009738,NULL
1673697188,28aa9717ed0dcc7ba01cc2e5713a3ca4,PennController,4,0,PracticeTrial,NULL,PennController,5,_Trial_,End,1673697009741,NULL
1673697188,28aa9717ed0dcc7ba01cc2e5713a3ca4,PennController,7,0,expstarts,NULL,PennController,3,_Trial_,Start,1673697009745,NULL
1673697188,28aa9717ed0dcc7ba01cc2e5713a3ca4,PennController,7,0,expstarts,NULL,PennController,3,_Trial_,End,1673697014752,NULL
# 13. Item.
# 14. Group.
# 15. License Type.
# 16. ECM.
# 17. Comments.
1673697188,28aa9717ed0dcc7ba01cc2e5713a3ca4,PennController,31,0,Experiment,NULL,PennController,31,_Trial_,Start,1673697014757,15,3,long-distance,yes,NULL
1673697188,28aa9717ed0dcc7ba01cc2e5713a3ca4,PennController,31,0,Experiment,NULL,Text,FlashSentence,Print,NA,1673697015015,15,3,long-distance,yes,NULL
1673697188,28aa9717ed0dcc7ba01cc2e5713a3ca4,PennController,31,0,Experiment,NULL,Scale,q,Choice,2,1673697019878,15,3,long-distance,yes,NULL
1673697188,28aa9717ed0dcc7ba01cc2e5713a3ca4,PennController,31,0,Experiment,NULL,PennController,31,_Trial_,End,1673697019882,15,3,long-distance,yes,NULL
# 13. Comments.
1673697188,28aa9717ed0dcc7ba01cc2e5713a3ca4,PennController,12,0,Filler,NULL,PennController,12,_Trial_,Start,1673697019886,NULL
1673697188,28aa9717ed0dcc7ba01cc2e5713a3ca4,PennController,12,0,Filler,NULL,Text,FlashSentence,Print,NA,1673697020141,NULL
1673697188,28aa9717ed0dcc7ba01cc2e5713a3ca4,PennController,12,0,Filler,NULL,Scale,q,Choice,5,1673697024828,NULL
1673697188,28aa9717ed0dcc7ba01cc2e5713a3ca4,PennController,12,0,Filler,NULL,PennController,12,_Trial_,End,1673697024832,NULL
# 13. Item.
# 14. Group.
# 15. License Type.
# 16. ECM.
# 17. Comments.
1673697188,28aa9717ed0dcc7ba01cc2e5713a3ca4,PennController,19,0,Experiment,NULL,PennController,19,_Trial_,Start,1673697024836,3,3,long-distance,yes,NULL
1673697188,28aa9717ed0dcc7ba01cc2e5713a3ca4,PennController,19,0,Experiment,NULL,Text,FlashSentence,Print,NA,1673697025092,3,3,long-distance,yes,NULL
1673697188,28aa9717ed0dcc7ba01cc2e5713a3ca4,PennController,19,0,Experiment,NULL,Scale,q,Choice,3,1673697028494,3,3,long-distance,yes,NULL
1673697188,28aa9717ed0dcc7ba01cc2e5713a3ca4,PennController,19,0,Experiment,NULL,PennController,19,_Trial_,End,1673697028497,3,3,long-distance,yes,NULL
1673697188,28aa9717ed0dcc7ba01cc2e5713a3ca4,PennController,23,0,Experiment,NULL,PennController,23,_Trial_,Start,1673697028500,7,3,unlicensed,no,NULL
1673697188,28aa9717ed0dcc7ba01cc2e5713a3ca4,PennController,23,0,Experiment,NULL,Text,FlashSentence,Print,NA,1673697028757,7,3,unlicensed,no,NULL
1673697188,28aa9717ed0dcc7ba01cc2e5713a3ca4,PennController,23,0,Experiment,NULL,Scale,q,Choice,1,1673697038044,7,3,unlicensed,no,NULL
1673697188,28aa9717ed0dcc7ba01cc2e5713a3ca4,PennController,23,0,Experiment,NULL,PennController,23,_Trial_,End,1673697038047,7,3,unlicensed,no,NULL
# 13. Comments.
1673697188,28aa9717ed0dcc7ba01cc2e5713a3ca4,PennController,11,0,Filler,NULL,PennController,11,_Trial_,Start,1673697038050,NULL
1673697188,28aa9717ed0dcc7ba01cc2e5713a3ca4,PennController,11,0,Filler,NULL,Text,FlashSentence,Print,NA,1673697038306,NULL
1673697188,28aa9717ed0dcc7ba01cc2e5713a3ca4,PennController,11,0,Filler,NULL,Scale,q,Choice,1,1673697042886,NULL
1673697188,28aa9717ed0dcc7ba01cc2e5713a3ca4,PennController,11,0,Filler,NULL,PennController,11,_Trial_,End,1673697042889,NULL
# 13. Item.
# 14. Group.
# 15. License Type.
# 16. ECM.
# 17. Comments.
1673697188,28aa9717ed0dcc7ba01cc2e5713a3ca4,PennController,20,0,Experiment,NULL,PennController,20,_Trial_,Start,1673697042893,4,3,unlicensed,yes,NULL
1673697188,28aa9717ed0dcc7ba01cc2e5713a3ca4,PennController,20,0,Experiment,NULL,Text,FlashSentence,Print,NA,1673697043149,4,3,unlicensed,yes,NULL
1673697188,28aa9717ed0dcc7ba01cc2e5713a3ca4,PennController,20,0,Experiment,NULL,Scale,q,Choice,1,1673697046919,4,3,unlicensed,yes,NULL
1673697188,28aa9717ed0dcc7ba01cc2e5713a3ca4,PennController,20,0,Experiment,NULL,PennController,20,_Trial_,End,1673697046923,4,3,unlicensed,yes,NULL
1673697188,28aa9717ed0dcc7ba01cc2e5713a3ca4,PennController,29,0,Experiment,NULL,PennController,29,_Trial_,Start,1673697046926,13,3,unlicensed,no,NULL
1673697188,28aa9717ed0dcc7ba01cc2e5713a3ca4,PennController,29,0,Experiment,NULL,Text,FlashSentence,Print,NA,1673697047183,13,3,unlicensed,no,NULL
1673697188,28aa9717ed0dcc7ba01cc2e5713a3ca4,PennController,29,0,Experiment,NULL,Scale,q,Choice,1,1673697053645,13,3,unlicensed,no,NULL
1673697188,28aa9717ed0dcc7ba01cc2e5713a3ca4,PennController,29,0,Experiment,NULL,PennController,29,_Trial_,End,1673697053648,13,3,unlicensed,no,NULL
# 13. Comments.
1673697188,28aa9717ed0dcc7ba01cc2e5713a3ca4,PennController,16,0,Filler,NULL,PennController,16,_Trial_,Start,1673697053651,NULL
1673697188,28aa9717ed0dcc7ba01cc2e5713a3ca4,PennController,16,0,Filler,NULL,Text,FlashSentence,Print,NA,1673697053905,NULL
1673697188,28aa9717ed0dcc7ba01cc2e5713a3ca4,PennController,16,0,Filler,NULL,Scale,q,Choice,5,1673697063802,NULL
1673697188,28aa9717ed0dcc7ba01cc2e5713a3ca4,PennController,16,0,Filler,NULL,PennController,16,_Trial_,End,1673697063803,NULL
# 13. Item.
# 14. Group.
# 15. License Type.
# 16. ECM.
# 17. Comments.
1673697188,28aa9717ed0dcc7ba01cc2e5713a3ca4,PennController,28,0,Experiment,NULL,PennController,28,_Trial_,Start,1673697063804,12,3,long-distance,no,NULL
1673697188,28aa9717ed0dcc7ba01cc2e5713a3ca4,PennController,28,0,Experiment,NULL,Text,FlashSentence,Print,NA,1673697064059,12,3,long-distance,no,NULL
1673697188,28aa9717ed0dcc7ba01cc2e5713a3ca4,PennController,28,0,Experiment,NULL,Scale,q,Choice,4,1673697078908,12,3,long-distance,no,NULL
1673697188,28aa9717ed0dcc7ba01cc2e5713a3ca4,PennController,28,0,Experiment,NULL,PennController,28,_Trial_,End,1673697078911,12,3,long-distance,no,NULL
1673697188,28aa9717ed0dcc7ba01cc2e5713a3ca4,PennController,27,0,Experiment,NULL,PennController,27,_Trial_,Start,1673697078915,11,3,licensed,no,NULL
1673697188,28aa9717ed0dcc7ba01cc2e5713a3ca4,PennController,27,0,Experiment,NULL,Text,FlashSentence,Print,NA,1673697079170,11,3,licensed,no,NULL
1673697188,28aa9717ed0dcc7ba01cc2e5713a3ca4,PennController,27,0,Experiment,NULL,Scale,q,Choice,5,1673697082320,11,3,licensed,no,NULL
1673697188,28aa9717ed0dcc7ba01cc2e5713a3ca4,PennController,27,0,Experiment,NULL,PennController,27,_Trial_,End,1673697082323,11,3,licensed,no,NULL
# 13. Comments.
1673697188,28aa9717ed0dcc7ba01cc2e5713a3ca4,PennController,14,0,Filler,NULL,PennController,14,_Trial_,Start,1673697082326,NULL
1673697188,28aa9717ed0dcc7ba01cc2e5713a3ca4,PennController,14,0,Filler,NULL,Text,FlashSentence,Print,NA,1673697082582,NULL
1673697188,28aa9717ed0dcc7ba01cc2e5713a3ca4,PennController,14,0,Filler,NULL,Scale,q,Choice,1,1673697086408,NULL
1673697188,28aa9717ed0dcc7ba01cc2e5713a3ca4,PennController,14,0,Filler,NULL,PennController,14,_Trial_,End,1673697086411,NULL
# 13. Item.
# 14. Group.
# 15. License Type.
# 16. ECM.
# 17. Comments.
1673697188,28aa9717ed0dcc7ba01cc2e5713a3ca4,PennController,26,0,Experiment,NULL,PennController,26,_Trial_,Start,1673697086414,10,3,unlicensed,yes,NULL
1673697188,28aa9717ed0dcc7ba01cc2e5713a3ca4,PennController,26,0,Experiment,NULL,Text,FlashSentence,Print,NA,1673697086669,10,3,unlicensed,yes,NULL
1673697188,28aa9717ed0dcc7ba01cc2e5713a3ca4,PennController,26,0,Experiment,NULL,Scale,q,Choice,1,1673697090924,10,3,unlicensed,yes,NULL
1673697188,28aa9717ed0dcc7ba01cc2e5713a3ca4,PennController,26,0,Experiment,NULL,PennController,26,_Trial_,End,1673697090927,10,3,unlicensed,yes,NULL
1673697188,28aa9717ed0dcc7ba01cc2e5713a3ca4,PennController,33,0,Experiment,NULL,PennController,33,_Trial_,Start,1673697090930,17,3,licensed,no,NULL
1673697188,28aa9717ed0dcc7ba01cc2e5713a3ca4,PennController,33,0,Experiment,NULL,Text,FlashSentence,Print,NA,1673697091184,17,3,licensed,no,NULL
1673697188,28aa9717ed0dcc7ba01cc2e5713a3ca4,PennController,33,0,Experiment,NULL,Scale,q,Choice,5,1673697095682,17,3,licensed,no,NULL
1673697188,28aa9717ed0dcc7ba01cc2e5713a3ca4,PennController,33,0,Experiment,NULL,PennController,33,_Trial_,End,1673697095686,17,3,licensed,no,NULL
# 13. Comments.
1673697188,28aa9717ed0dcc7ba01cc2e5713a3ca4,PennController,9,0,Filler,NULL,PennController,9,_Trial_,Start,1673697095689,NULL
1673697188,28aa9717ed0dcc7ba01cc2e5713a3ca4,PennController,9,0,Filler,NULL,Text,FlashSentence,Print,NA,1673697095943,NULL
1673697188,28aa9717ed0dcc7ba01cc2e5713a3ca4,PennController,9,0,Filler,NULL,Scale,q,Choice,1,1673697105823,NULL
1673697188,28aa9717ed0dcc7ba01cc2e5713a3ca4,PennController,9,0,Filler,NULL,PennController,9,_Trial_,End,1673697105826,NULL
# 13. Item.
# 14. Group.
# 15. License Type.
# 16. ECM.
# 17. Comments.
1673697188,28aa9717ed0dcc7ba01cc2e5713a3ca4,PennController,30,0,Experiment,NULL,PennController,30,_Trial_,Start,1673697105829,14,3,licensed,yes,NULL
1673697188,28aa9717ed0dcc7ba01cc2e5713a3ca4,PennController,30,0,Experiment,NULL,Text,FlashSentence,Print,NA,1673697106085,14,3,licensed,yes,NULL
1673697188,28aa9717ed0dcc7ba01cc2e5713a3ca4,PennController,30,0,Experiment,NULL,Scale,q,Choice,4,1673697112098,14,3,licensed,yes,NULL
1673697188,28aa9717ed0dcc7ba01cc2e5713a3ca4,PennController,30,0,Experiment,NULL,PennController,30,_Trial_,End,1673697112101,14,3,licensed,yes,NULL
1673697188,28aa9717ed0dcc7ba01cc2e5713a3ca4,PennController,22,0,Experiment,NULL,PennController,22,_Trial_,Start,1673697112105,6,3,long-distance,no,NULL
1673697188,28aa9717ed0dcc7ba01cc2e5713a3ca4,PennController,22,0,Experiment,NULL,Text,FlashSentence,Print,NA,1673697112360,6,3,long-distance,no,NULL
1673697188,28aa9717ed0dcc7ba01cc2e5713a3ca4,PennController,22,0,Experiment,NULL,Scale,q,Choice,1,1673697121423,6,3,long-distance,no,NULL
1673697188,28aa9717ed0dcc7ba01cc2e5713a3ca4,PennController,22,0,Experiment,NULL,PennController,22,_Trial_,End,1673697121425,6,3,long-distance,no,NULL
# 13. Comments.
1673697188,28aa9717ed0dcc7ba01cc2e5713a3ca4,PennController,15,0,Filler,NULL,PennController,15,_Trial_,Start,1673697121428,NULL
1673697188,28aa9717ed0dcc7ba01cc2e5713a3ca4,PennController,15,0,Filler,NULL,Text,FlashSentence,Print,NA,1673697121683,NULL
1673697188,28aa9717ed0dcc7ba01cc2e5713a3ca4,PennController,15,0,Filler,NULL,Scale,q,Choice,1,1673697130714,NULL
1673697188,28aa9717ed0dcc7ba01cc2e5713a3ca4,PennController,15,0,Filler,NULL,PennController,15,_Trial_,End,1673697130717,NULL
# 13. Item.
# 14. Group.
# 15. License Type.
# 16. ECM.
# 17. Comments.
1673697188,28aa9717ed0dcc7ba01cc2e5713a3ca4,PennController,32,0,Experiment,NULL,PennController,32,_Trial_,Start,1673697130721,16,3,unlicensed,yes,NULL
1673697188,28aa9717ed0dcc7ba01cc2e5713a3ca4,PennController,32,0,Experiment,NULL,Text,FlashSentence,Print,NA,1673697130976,16,3,unlicensed,yes,NULL
1673697188,28aa9717ed0dcc7ba01cc2e5713a3ca4,PennController,32,0,Experiment,NULL,Scale,q,Choice,1,1673697134547,16,3,unlicensed,yes,NULL
1673697188,28aa9717ed0dcc7ba01cc2e5713a3ca4,PennController,32,0,Experiment,NULL,PennController,32,_Trial_,End,1673697134550,16,3,unlicensed,yes,NULL
1673697188,28aa9717ed0dcc7ba01cc2e5713a3ca4,PennController,21,0,Experiment,NULL,PennController,21,_Trial_,Start,1673697134553,5,3,licensed,no,NULL
1673697188,28aa9717ed0dcc7ba01cc2e5713a3ca4,PennController,21,0,Experiment,NULL,Text,FlashSentence,Print,NA,1673697134808,5,3,licensed,no,NULL
1673697188,28aa9717ed0dcc7ba01cc2e5713a3ca4,PennController,21,0,Experiment,NULL,Scale,q,Choice,3,1673697142513,5,3,licensed,no,NULL
1673697188,28aa9717ed0dcc7ba01cc2e5713a3ca4,PennController,21,0,Experiment,NULL,PennController,21,_Trial_,End,1673697142515,5,3,licensed,no,NULL
# 13. Comments.
1673697188,28aa9717ed0dcc7ba01cc2e5713a3ca4,PennController,10,0,Filler,NULL,PennController,10,_Trial_,Start,1673697142519,NULL
1673697188,28aa9717ed0dcc7ba01cc2e5713a3ca4,PennController,10,0,Filler,NULL,Text,FlashSentence,Print,NA,1673697142774,NULL
1673697188,28aa9717ed0dcc7ba01cc2e5713a3ca4,PennController,10,0,Filler,NULL,Scale,q,Choice,5,1673697145904,NULL
1673697188,28aa9717ed0dcc7ba01cc2e5713a3ca4,PennController,10,0,Filler,NULL,PennController,10,_Trial_,End,1673697145906,NULL
# 13. Item.
# 14. Group.
# 15. License Type.
# 16. ECM.
# 17. Comments.
1673697188,28aa9717ed0dcc7ba01cc2e5713a3ca4,PennController,24,0,Experiment,NULL,PennController,24,_Trial_,Start,1673697145910,8,3,licensed,yes,NULL
1673697188,28aa9717ed0dcc7ba01cc2e5713a3ca4,PennController,24,0,Experiment,NULL,Text,FlashSentence,Print,NA,1673697146164,8,3,licensed,yes,NULL
1673697188,28aa9717ed0dcc7ba01cc2e5713a3ca4,PennController,24,0,Experiment,NULL,Scale,q,Choice,1,1673697148337,8,3,licensed,yes,NULL
1673697188,28aa9717ed0dcc7ba01cc2e5713a3ca4,PennController,24,0,Experiment,NULL,PennController,24,_Trial_,End,1673697148340,8,3,licensed,yes,NULL
1673697188,28aa9717ed0dcc7ba01cc2e5713a3ca4,PennController,18,0,Experiment,NULL,PennController,18,_Trial_,Start,1673697148343,2,3,licensed,yes,NULL
1673697188,28aa9717ed0dcc7ba01cc2e5713a3ca4,PennController,18,0,Experiment,NULL,Text,FlashSentence,Print,NA,1673697148597,2,3,licensed,yes,NULL
1673697188,28aa9717ed0dcc7ba01cc2e5713a3ca4,PennController,18,0,Experiment,NULL,Scale,q,Choice,4,1673697152720,2,3,licensed,yes,NULL
1673697188,28aa9717ed0dcc7ba01cc2e5713a3ca4,PennController,18,0,Experiment,NULL,PennController,18,_Trial_,End,1673697152723,2,3,licensed,yes,NULL
# 13. Comments.
1673697188,28aa9717ed0dcc7ba01cc2e5713a3ca4,PennController,13,0,Filler,NULL,PennController,13,_Trial_,Start,1673697152725,NULL
1673697188,28aa9717ed0dcc7ba01cc2e5713a3ca4,PennController,13,0,Filler,NULL,Text,FlashSentence,Print,NA,1673697152982,NULL
1673697188,28aa9717ed0dcc7ba01cc2e5713a3ca4,PennController,13,0,Filler,NULL,Scale,q,Choice,5,1673697165512,NULL
1673697188,28aa9717ed0dcc7ba01cc2e5713a3ca4,PennController,13,0,Filler,NULL,PennController,13,_Trial_,End,1673697165514,NULL
# 13. Item.
# 14. Group.
# 15. License Type.
# 16. ECM.
# 17. Comments.
1673697188,28aa9717ed0dcc7ba01cc2e5713a3ca4,PennController,17,0,Experiment,NULL,PennController,17,_Trial_,Start,1673697165517,1,3,unlicensed,no,NULL
1673697188,28aa9717ed0dcc7ba01cc2e5713a3ca4,PennController,17,0,Experiment,NULL,Text,FlashSentence,Print,NA,1673697165771,1,3,unlicensed,no,NULL
1673697188,28aa9717ed0dcc7ba01cc2e5713a3ca4,PennController,17,0,Experiment,NULL,Scale,q,Choice,1,1673697169187,1,3,unlicensed,no,NULL
1673697188,28aa9717ed0dcc7ba01cc2e5713a3ca4,PennController,17,0,Experiment,NULL,PennController,17,_Trial_,End,1673697169189,1,3,unlicensed,no,NULL
1673697188,28aa9717ed0dcc7ba01cc2e5713a3ca4,PennController,34,0,Experiment,NULL,PennController,34,_Trial_,Start,1673697169192,18,3,long-distance,no,NULL
1673697188,28aa9717ed0dcc7ba01cc2e5713a3ca4,PennController,34,0,Experiment,NULL,Text,FlashSentence,Print,NA,1673697169448,18,3,long-distance,no,NULL
1673697188,28aa9717ed0dcc7ba01cc2e5713a3ca4,PennController,34,0,Experiment,NULL,Scale,q,Choice,2,1673697174494,18,3,long-distance,no,NULL
1673697188,28aa9717ed0dcc7ba01cc2e5713a3ca4,PennController,34,0,Experiment,NULL,PennController,34,_Trial_,End,1673697174497,18,3,long-distance,no,NULL
# 13. Comments.
1673697188,28aa9717ed0dcc7ba01cc2e5713a3ca4,PennController,8,0,Filler,NULL,PennController,8,_Trial_,Start,1673697174500,NULL
1673697188,28aa9717ed0dcc7ba01cc2e5713a3ca4,PennController,8,0,Filler,NULL,Text,FlashSentence,Print,NA,1673697174754,NULL
1673697188,28aa9717ed0dcc7ba01cc2e5713a3ca4,PennController,8,0,Filler,NULL,Scale,q,Choice,5,1673697180652,NULL
1673697188,28aa9717ed0dcc7ba01cc2e5713a3ca4,PennController,8,0,Filler,NULL,PennController,8,_Trial_,End,1673697180654,NULL
# 13. Item.
# 14. Group.
# 15. License Type.
# 16. ECM.
# 17. Comments.
1673697188,28aa9717ed0dcc7ba01cc2e5713a3ca4,PennController,25,0,Experiment,NULL,PennController,25,_Trial_,Start,1673697180659,9,3,long-distance,yes,NULL
1673697188,28aa9717ed0dcc7ba01cc2e5713a3ca4,PennController,25,0,Experiment,NULL,Text,FlashSentence,Print,NA,1673697180913,9,3,long-distance,yes,NULL
1673697188,28aa9717ed0dcc7ba01cc2e5713a3ca4,PennController,25,0,Experiment,NULL,Scale,q,Choice,1,1673697187903,9,3,long-distance,yes,NULL
1673697188,28aa9717ed0dcc7ba01cc2e5713a3ca4,PennController,25,0,Experiment,NULL,PennController,25,_Trial_,End,1673697187905,9,3,long-distance,yes,NULL
#
# Results on Sat, 14 Jan 2023 13:12:56 GMT
# USER AGENT: Mozilla/5.0 (iPhone; CPU iPhone OS 16_0 like Mac OS X) AppleWebKit/605.1.15 (KHTML, like Gecko) Version/16.0 Mobile/15E148 Safari/604.1
# Design number was non-random = 3
#
# Columns below this comment are as follows:
# 1. Results reception time.
# 2. MD5 hash of participant's IP address.
# 3. Controller name.
# 4. Order number of item.
# 5. Inner element number.
# 6. Label.
# 7. Latin Square Group.
# 8. PennElementType.
# 9. PennElementName.
# 10. Parameter.
# 11. Value.
# 12. EventTime.
# 13. Comments.
1673701976,aec6c2257c3501f3654f5bcc96a6311b,PennController,1,0,Consent,NULL,PennController,0,_Trial_,Start,1673701770275,NULL
1673701976,aec6c2257c3501f3654f5bcc96a6311b,PennController,1,0,Consent,NULL,TextInput,input_name,First,,1673701789936,n
1673701976,aec6c2257c3501f3654f5bcc96a6311b,PennController,1,0,Consent,NULL,TextInput,input_name,Final,nisa nur bağcı,1673701798739,NULL
1673701976,aec6c2257c3501f3654f5bcc96a6311b,PennController,1,0,Consent,NULL,PennController,0,_Trial_,End,1673701798739,NULL
1673701976,aec6c2257c3501f3654f5bcc96a6311b,PennController,2,0,ExpInstructions,NULL,PennController,1,_Trial_,Start,1673701798746,NULL
1673701976,aec6c2257c3501f3654f5bcc96a6311b,PennController,2,0,ExpInstructions,NULL,PennController,1,_Trial_,End,1673701803999,NULL
1673701976,aec6c2257c3501f3654f5bcc96a6311b,PennController,3,0,PracticeInstructions,NULL,PennController,2,_Trial_,Start,1673701804004,NULL
1673701976,aec6c2257c3501f3654f5bcc96a6311b,PennController,3,0,PracticeInstructions,NULL,PennController,2,_Trial_,End,1673701805744,NULL
1673701976,aec6c2257c3501f3654f5bcc96a6311b,PennController,6,0,PracticeTrial,NULL,PennController,7,_Trial_,Start,1673701805749,NULL
1673701976,aec6c2257c3501f3654f5bcc96a6311b,PennController,6,0,PracticeTrial,NULL,Text,FlashSentence,Print,NA,1673701806014,NULL
1673701976,aec6c2257c3501f3654f5bcc96a6311b,PennController,6,0,PracticeTrial,NULL,Scale,q,Choice,3,1673701817712,NULL
1673701976,aec6c2257c3501f3654f5bcc96a6311b,PennController,6,0,PracticeTrial,NULL,PennController,7,_Trial_,End,1673701817716,NULL
1673701976,aec6c2257c3501f3654f5bcc96a6311b,PennController,4,0,PracticeTrial,NULL,PennController,5,_Trial_,Start,1673701817720,NULL
1673701976,aec6c2257c3501f3654f5bcc96a6311b,PennController,4,0,PracticeTrial,NULL,Text,FlashSentence,Print,NA,1673701817975,NULL
1673701976,aec6c2257c3501f3654f5bcc96a6311b,PennController,4,0,PracticeTrial,NULL,Scale,q,Choice,5,1673701824325,NULL
1673701976,aec6c2257c3501f3654f5bcc96a6311b,PennController,4,0,PracticeTrial,NULL,PennController,5,_Trial_,End,1673701824330,NULL
1673701976,aec6c2257c3501f3654f5bcc96a6311b,PennController,5,0,PracticeTrial,NULL,PennController,6,_Trial_,Start,1673701824333,NULL
1673701976,aec6c2257c3501f3654f5bcc96a6311b,PennController,5,0,PracticeTrial,NULL,Text,FlashSentence,Print,NA,1673701824590,NULL
1673701976,aec6c2257c3501f3654f5bcc96a6311b,PennController,5,0,PracticeTrial,NULL,Scale,q,Choice,1,1673701834988,NULL
1673701976,aec6c2257c3501f3654f5bcc96a6311b,PennController,5,0,PracticeTrial,NULL,PennController,6,_Trial_,End,1673701834990,NULL
1673701976,aec6c2257c3501f3654f5bcc96a6311b,PennController,7,0,expstarts,NULL,PennController,3,_Trial_,Start,1673701834992,NULL
1673701976,aec6c2257c3501f3654f5bcc96a6311b,PennController,7,0,expstarts,NULL,PennController,3,_Trial_,End,1673701840000,NULL
# 13. Item.
# 14. Group.
# 15. License Type.
# 16. ECM.
# 17. Comments.
1673701976,aec6c2257c3501f3654f5bcc96a6311b,PennController,17,0,Experiment,NULL,PennController,17,_Trial_,Start,1673701840005,1,4,licensed,yes,NULL
1673701976,aec6c2257c3501f3654f5bcc96a6311b,PennController,17,0,Experiment,NULL,Text,FlashSentence,Print,NA,1673701840264,1,4,licensed,yes,NULL
1673701976,aec6c2257c3501f3654f5bcc96a6311b,PennController,17,0,Experiment,NULL,Scale,q,Choice,1,1673701846344,1,4,licensed,yes,NULL
1673701976,aec6c2257c3501f3654f5bcc96a6311b,PennController,17,0,Experiment,NULL,PennController,17,_Trial_,End,1673701846349,1,4,licensed,yes,NULL
# 13. Comments.
1673701976,aec6c2257c3501f3654f5bcc96a6311b,PennController,14,0,Filler,NULL,PennController,14,_Trial_,Start,1673701846353,NULL
1673701976,aec6c2257c3501f3654f5bcc96a6311b,PennController,14,0,Filler,NULL,Text,FlashSentence,Print,NA,1673701846612,NULL
1673701976,aec6c2257c3501f3654f5bcc96a6311b,PennController,14,0,Filler,NULL,Scale,q,Choice,1,1673701849858,NULL
1673701976,aec6c2257c3501f3654f5bcc96a6311b,PennController,14,0,Filler,NULL,PennController,14,_Trial_,End,1673701849861,NULL
# 13. Item.
# 14. Group.
# 15. License Type.
# 16. ECM.
# 17. Comments.
1673701976,aec6c2257c3501f3654f5bcc96a6311b,PennController,22,0,Experiment,NULL,PennController,22,_Trial_,Start,1673701849864,6,4,unlicensed,no,NULL
1673701976,aec6c2257c3501f3654f5bcc96a6311b,PennController,22,0,Experiment,NULL,Text,FlashSentence,Print,NA,1673701850120,6,4,unlicensed,no,NULL
1673701976,aec6c2257c3501f3654f5bcc96a6311b,PennController,22,0,Experiment,NULL,Scale,q,Choice,2,1673701856758,6,4,unlicensed,no,NULL
1673701976,aec6c2257c3501f3654f5bcc96a6311b,PennController,22,0,Experiment,NULL,PennController,22,_Trial_,End,1673701856761,6,4,unlicensed,no,NULL
1673701976,aec6c2257c3501f3654f5bcc96a6311b,PennController,26,0,Experiment,NULL,PennController,26,_Trial_,Start,1673701856764,10,4,licensed,no,NULL
1673701976,aec6c2257c3501f3654f5bcc96a6311b,PennController,26,0,Experiment,NULL,Text,FlashSentence,Print,NA,1673701857021,10,4,licensed,no,NULL
1673701976,aec6c2257c3501f3654f5bcc96a6311b,PennController,26,0,Experiment,NULL,Scale,q,Choice,4,1673701862257,10,4,licensed,no,NULL
1673701976,aec6c2257c3501f3654f5bcc96a6311b,PennController,26,0,Experiment,NULL,PennController,26,_Trial_,End,1673701862260,10,4,licensed,no,NULL
# 13. Comments.
1673701976,aec6c2257c3501f3654f5bcc96a6311b,PennController,9,0,Filler,NULL,PennController,9,_Trial_,Start,1673701862264,NULL
1673701976,aec6c2257c3501f3654f5bcc96a6311b,PennController,9,0,Filler,NULL,Text,FlashSentence,Print,NA,1673701862520,NULL
1673701976,aec6c2257c3501f3654f5bcc96a6311b,PennController,9,0,Filler,NULL,Scale,q,Choice,1,1673701869911,NULL
1673701976,aec6c2257c3501f3654f5bcc96a6311b,PennController,9,0,Filler,NULL,PennController,9,_Trial_,End,1673701869913,NULL
# 13. Item.
# 14. Group.
# 15. License Type.
# 16. ECM.
# 17. Comments.
1673701976,aec6c2257c3501f3654f5bcc96a6311b,PennController,25,0,Experiment,NULL,PennController,25,_Trial_,Start,1673701869917,9,4,unlicensed,yes,NULL
1673701976,aec6c2257c3501f3654f5bcc96a6311b,PennController,25,0,Experiment,NULL,Text,FlashSentence,Print,NA,1673701870174,9,4,unlicensed,yes,NULL
1673701976,aec6c2257c3501f3654f5bcc96a6311b,PennController,25,0,Experiment,NULL,Scale,q,Choice,1,1673701873141,9,4,unlicensed,yes,NULL
1673701976,aec6c2257c3501f3654f5bcc96a6311b,PennController,25,0,Experiment,NULL,PennController,25,_Trial_,End,1673701873144,9,4,unlicensed,yes,NULL
1673701976,aec6c2257c3501f3654f5bcc96a6311b,PennController,20,0,Experiment,NULL,PennController,20,_Trial_,Start,1673701873147,4,4,licensed,no,NULL
1673701976,aec6c2257c3501f3654f5bcc96a6311b,PennController,20,0,Experiment,NULL,Text,FlashSentence,Print,NA,1673701873407,4,4,licensed,no,NULL
1673701976,aec6c2257c3501f3654f5bcc96a6311b,PennController,20,0,Experiment,NULL,Scale,q,Choice,5,1673701876808,4,4,licensed,no,NULL
1673701976,aec6c2257c3501f3654f5bcc96a6311b,PennController,20,0,Experiment,NULL,PennController,20,_Trial_,End,1673701876810,4,4,licensed,no,NULL
# 13. Comments.
1673701976,aec6c2257c3501f3654f5bcc96a6311b,PennController,13,0,Filler,NULL,PennController,13,_Trial_,Start,1673701876815,NULL
1673701976,aec6c2257c3501f3654f5bcc96a6311b,PennController,13,0,Filler,NULL,Text,FlashSentence,Print,NA,1673701877071,NULL
1673701976,aec6c2257c3501f3654f5bcc96a6311b,PennController,13,0,Filler,NULL,Scale,q,Choice,5,1673701881589,NULL
1673701976,aec6c2257c3501f3654f5bcc96a6311b,PennController,13,0,Filler,NULL,PennController,13,_Trial_,End,1673701881592,NULL
# 13. Item.
# 14. Group.
# 15. License Type.
# 16. ECM.
# 17. Comments.
1673701976,aec6c2257c3501f3654f5bcc96a6311b,PennController,27,0,Experiment,NULL,PennController,27,_Trial_,Start,1673701881597,11,4,long-distance,no,NULL
1673701976,aec6c2257c3501f3654f5bcc96a6311b,PennController,27,0,Experiment,NULL,Text,FlashSentence,Print,NA,1673701881851,11,4,long-distance,no,NULL
1673701976,aec6c2257c3501f3654f5bcc96a6311b,PennController,27,0,Experiment,NULL,Scale,q,Choice,1,1673701887225,11,4,long-distance,no,NULL
1673701976,aec6c2257c3501f3654f5bcc96a6311b,PennController,27,0,Experiment,NULL,PennController,27,_Trial_,End,1673701887228,11,4,long-distance,no,NULL
1673701976,aec6c2257c3501f3654f5bcc96a6311b,PennController,33,0,Experiment,NULL,PennController,33,_Trial_,Start,1673701887231,17,4,long-distance,no,NULL
1673701976,aec6c2257c3501f3654f5bcc96a6311b,PennController,33,0,Experiment,NULL,Text,FlashSentence,Print,NA,1673701887489,17,4,long-distance,no,NULL
1673701976,aec6c2257c3501f3654f5bcc96a6311b,PennController,33,0,Experiment,NULL,Scale,q,Choice,1,1673701894107,17,4,long-distance,no,NULL
1673701976,aec6c2257c3501f3654f5bcc96a6311b,PennController,33,0,Experiment,NULL,PennController,33,_Trial_,End,1673701894110,17,4,long-distance,no,NULL
# 13. Comments.
1673701976,aec6c2257c3501f3654f5bcc96a6311b,PennController,11,0,Filler,NULL,PennController,11,_Trial_,Start,1673701894113,NULL
1673701976,aec6c2257c3501f3654f5bcc96a6311b,PennController,11,0,Filler,NULL,Text,FlashSentence,Print,NA,1673701894368,NULL
1673701976,aec6c2257c3501f3654f5bcc96a6311b,PennController,11,0,Filler,NULL,Scale,q,Choice,1,1673701897874,NULL
1673701976,aec6c2257c3501f3654f5bcc96a6311b,PennController,11,0,Filler,NULL,PennController,11,_Trial_,End,1673701897877,NULL
# 13. Item.
# 14. Group.
# 15. License Type.
# 16. ECM.
# 17. Comments.
1673701976,aec6c2257c3501f3654f5bcc96a6311b,PennController,31,0,Experiment,NULL,PennController,31,_Trial_,Start,1673701897880,15,4,unlicensed,yes,NULL
1673701976,aec6c2257c3501f3654f5bcc96a6311b,PennController,31,0,Experiment,NULL,Text,FlashSentence,Print,NA,1673701898135,15,4,unlicensed,yes,NULL
1673701976,aec6c2257c3501f3654f5bcc96a6311b,PennController,31,0,Experiment,NULL,Scale,q,Choice,1,1673701903424,15,4,unlicensed,yes,NULL
1673701976,aec6c2257c3501f3654f5bcc96a6311b,PennController,31,0,Experiment,NULL,PennController,31,_Trial_,End,1673701903426,15,4,unlicensed,yes,NULL
1673701976,aec6c2257c3501f3654f5bcc96a6311b,PennController,34,0,Experiment,NULL,PennController,34,_Trial_,Start,1673701903429,18,4,unlicensed,no,NULL
1673701976,aec6c2257c3501f3654f5bcc96a6311b,PennController,34,0,Experiment,NULL,Text,FlashSentence,Print,NA,1673701903685,18,4,unlicensed,no,NULL
1673701976,aec6c2257c3501f3654f5bcc96a6311b,PennController,34,0,Experiment,NULL,Scale,q,Choice,1,1673701906860,18,4,unlicensed,no,NULL
1673701976,aec6c2257c3501f3654f5bcc96a6311b,PennController,34,0,Experiment,NULL,PennController,34,_Trial_,End,1673701906863,18,4,unlicensed,no,NULL
# 13. Comments.
1673701976,aec6c2257c3501f3654f5bcc96a6311b,PennController,15,0,Filler,NULL,PennController,15,_Trial_,Start,1673701906867,NULL
1673701976,aec6c2257c3501f3654f5bcc96a6311b,PennController,15,0,Filler,NULL,Text,FlashSentence,Print,NA,1673701907122,NULL
1673701976,aec6c2257c3501f3654f5bcc96a6311b,PennController,15,0,Filler,NULL,Scale,q,Choice,1,1673701913475,NULL
1673701976,aec6c2257c3501f3654f5bcc96a6311b,PennController,15,0,Filler,NULL,PennController,15,_Trial_,End,1673701913477,NULL
# 13. Item.
# 14. Group.
# 15. License Type.
# 16. ECM.
# 17. Comments.
1673701976,aec6c2257c3501f3654f5bcc96a6311b,PennController,24,0,Experiment,NULL,PennController,24,_Trial_,Start,1673701913481,8,4,long-distance,yes,NULL
1673701976,aec6c2257c3501f3654f5bcc96a6311b,PennController,24,0,Experiment,NULL,Text,FlashSentence,Print,NA,1673701913738,8,4,long-distance,yes,NULL
1673701976,aec6c2257c3501f3654f5bcc96a6311b,PennController,24,0,Experiment,NULL,Scale,q,Choice,4,1673701918176,8,4,long-distance,yes,NULL
1673701976,aec6c2257c3501f3654f5bcc96a6311b,PennController,24,0,Experiment,NULL,PennController,24,_Trial_,End,1673701918178,8,4,long-distance,yes,NULL
1673701976,aec6c2257c3501f3654f5bcc96a6311b,PennController,28,0,Experiment,NULL,PennController,28,_Trial_,Start,1673701918182,12,4,unlicensed,no,NULL
1673701976,aec6c2257c3501f3654f5bcc96a6311b,PennController,28,0,Experiment,NULL,Text,FlashSentence,Print,NA,1673701918438,12,4,unlicensed,no,NULL
1673701976,aec6c2257c3501f3654f5bcc96a6311b,PennController,28,0,Experiment,NULL,Scale,q,Choice,1,1673701922758,12,4,unlicensed,no,NULL
1673701976,aec6c2257c3501f3654f5bcc96a6311b,PennController,28,0,Experiment,NULL,PennController,28,_Trial_,End,1673701922760,12,4,unlicensed,no,NULL
# 13. Comments.
1673701976,aec6c2257c3501f3654f5bcc96a6311b,PennController,8,0,Filler,NULL,PennController,8,_Trial_,Start,1673701922764,NULL
1673701976,aec6c2257c3501f3654f5bcc96a6311b,PennController,8,0,Filler,NULL,Text,FlashSentence,Print,NA,1673701923019,NULL
1673701976,aec6c2257c3501f3654f5bcc96a6311b,PennController,8,0,Filler,NULL,Scale,q,Choice,5,1673701927494,NULL
1673701976,aec6c2257c3501f3654f5bcc96a6311b,PennController,8,0,Filler,NULL,PennController,8,_Trial_,End,1673701927496,NULL
# 13. Item.
# 14. Group.
# 15. License Type.
# 16. ECM.
# 17. Comments.
1673701976,aec6c2257c3501f3654f5bcc96a6311b,PennController,29,0,Experiment,NULL,PennController,29,_Trial_,Start,1673701927500,13,4,licensed,yes,NULL
1673701976,aec6c2257c3501f3654f5bcc96a6311b,PennController,29,0,Experiment,NULL,Text,FlashSentence,Print,NA,1673701927755,13,4,licensed,yes,NULL
1673701976,aec6c2257c3501f3654f5bcc96a6311b,PennController,29,0,Experiment,NULL,Scale,q,Choice,4,1673701932525,13,4,licensed,yes,NULL
1673701976,aec6c2257c3501f3654f5bcc96a6311b,PennController,29,0,Experiment,NULL,PennController,29,_Trial_,End,1673701932527,13,4,licensed,yes,NULL
1673701976,aec6c2257c3501f3654f5bcc96a6311b,PennController,30,0,Experiment,NULL,PennController,30,_Trial_,Start,1673701932530,14,4,long-distance,yes,NULL
1673701976,aec6c2257c3501f3654f5bcc96a6311b,PennController,30,0,Experiment,NULL,Text,FlashSentence,Print,NA,1673701932785,14,4,long-distance,yes,NULL
1673701976,aec6c2257c3501f3654f5bcc96a6311b,PennController,30,0,Experiment,NULL,Scale,q,Choice,2,1673701936392,14,4,long-distance,yes,NULL
1673701976,aec6c2257c3501f3654f5bcc96a6311b,PennController,30,0,Experiment,NULL,PennController,30,_Trial_,End,1673701936394,14,4,long-distance,yes,NULL
# 13. Comments.
1673701976,aec6c2257c3501f3654f5bcc96a6311b,PennController,16,0,Filler,NULL,PennController,16,_Trial_,Start,1673701936397,NULL
1673701976,aec6c2257c3501f3654f5bcc96a6311b,PennController,16,0,Filler,NULL,Text,FlashSentence,Print,NA,1673701936651,NULL
1673701976,aec6c2257c3501f3654f5bcc96a6311b,PennController,16,0,Filler,NULL,Scale,q,Choice,5,1673701939208,NULL
1673701976,aec6c2257c3501f3654f5bcc96a6311b,PennController,16,0,Filler,NULL,PennController,16,_Trial_,End,1673701939210,NULL
# 13. Item.
# 14. Group.
# 15. License Type.
# 16. ECM.
# 17. Comments.
1673701976,aec6c2257c3501f3654f5bcc96a6311b,PennController,32,0,Experiment,NULL,PennController,32,_Trial_,Start,1673701939213,16,4,licensed,no,NULL
1673701976,aec6c2257c3501f3654f5bcc96a6311b,PennController,32,0,Experiment,NULL,Text,FlashSentence,Print,NA,1673701939468,16,4,licensed,no,NULL
1673701976,aec6c2257c3501f3654f5bcc96a6311b,PennController,32,0,Experiment,NULL,Scale,q,Choice,5,1673701942211,16,4,licensed,no,NULL
1673701976,aec6c2257c3501f3654f5bcc96a6311b,PennController,32,0,Experiment,NULL,PennController,32,_Trial_,End,1673701942214,16,4,licensed,no,NULL
1673701976,aec6c2257c3501f3654f5bcc96a6311b,PennController,19,0,Experiment,NULL,PennController,19,_Trial_,Start,1673701942217,3,4,unlicensed,yes,NULL
1673701976,aec6c2257c3501f3654f5bcc96a6311b,PennController,19,0,Experiment,NULL,Text,FlashSentence,Print,NA,1673701942472,3,4,unlicensed,yes,NULL
1673701976,aec6c2257c3501f3654f5bcc96a6311b,PennController,19,0,Experiment,NULL,Scale,q,Choice,1,1673701948344,3,4,unlicensed,yes,NULL
1673701976,aec6c2257c3501f3654f5bcc96a6311b,PennController,19,0,Experiment,NULL,PennController,19,_Trial_,End,1673701948347,3,4,unlicensed,yes,NULL
# 13. Comments.
1673701976,aec6c2257c3501f3654f5bcc96a6311b,PennController,10,0,Filler,NULL,PennController,10,_Trial_,Start,1673701948350,NULL
1673701976,aec6c2257c3501f3654f5bcc96a6311b,PennController,10,0,Filler,NULL,Text,FlashSentence,Print,NA,1673701948603,NULL
1673701976,aec6c2257c3501f3654f5bcc96a6311b,PennController,10,0,Filler,NULL,Scale,q,Choice,5,1673701953225,NULL
1673701976,aec6c2257c3501f3654f5bcc96a6311b,PennController,10,0,Filler,NULL,PennController,10,_Trial_,End,1673701953227,NULL
# 13. Item.
# 14. Group.
# 15. License Type.
# 16. ECM.
# 17. Comments.
1673701976,aec6c2257c3501f3654f5bcc96a6311b,PennController,21,0,Experiment,NULL,PennController,21,_Trial_,Start,1673701953231,5,4,long-distance,no,NULL
1673701976,aec6c2257c3501f3654f5bcc96a6311b,PennController,21,0,Experiment,NULL,Text,FlashSentence,Print,NA,1673701953486,5,4,long-distance,no,NULL
1673701976,aec6c2257c3501f3654f5bcc96a6311b,PennController,21,0,Experiment,NULL,Scale,q,Choice,3,1673701957159,5,4,long-distance,no,NULL
1673701976,aec6c2257c3501f3654f5bcc96a6311b,PennController,21,0,Experiment,NULL,PennController,21,_Trial_,End,1673701957161,5,4,long-distance,no,NULL
1673701976,aec6c2257c3501f3654f5bcc96a6311b,PennController,18,0,Experiment,NULL,PennController,18,_Trial_,Start,1673701957164,2,4,long-distance,yes,NULL
1673701976,aec6c2257c3501f3654f5bcc96a6311b,PennController,18,0,Experiment,NULL,Text,FlashSentence,Print,NA,1673701957418,2,4,long-distance,yes,NULL
1673701976,aec6c2257c3501f3654f5bcc96a6311b,PennController,18,0,Experiment,NULL,Scale,q,Choice,4,1673701960125,2,4,long-distance,yes,NULL
1673701976,aec6c2257c3501f3654f5bcc96a6311b,PennController,18,0,Experiment,NULL,PennController,18,_Trial_,End,1673701960127,2,4,long-distance,yes,NULL
# 13. Comments.
1673701976,aec6c2257c3501f3654f5bcc96a6311b,PennController,12,0,Filler,NULL,PennController,12,_Trial_,Start,1673701960130,NULL
1673701976,aec6c2257c3501f3654f5bcc96a6311b,PennController,12,0,Filler,NULL,Text,FlashSentence,Print,NA,1673701960385,NULL
1673701976,aec6c2257c3501f3654f5bcc96a6311b,PennController,12,0,Filler,NULL,Scale,q,Choice,4,1673701965975,NULL
1673701976,aec6c2257c3501f3654f5bcc96a6311b,PennController,12,0,Filler,NULL,PennController,12,_Trial_,End,1673701965977,NULL
# 13. Item.
# 14. Group.
# 15. License Type.
# 16. ECM.
# 17. Comments.
1673701976,aec6c2257c3501f3654f5bcc96a6311b,PennController,23,0,Experiment,NULL,PennController,23,_Trial_,Start,1673701965981,7,4,licensed,yes,NULL
1673701976,aec6c2257c3501f3654f5bcc96a6311b,PennController,23,0,Experiment,NULL,Text,FlashSentence,Print,NA,1673701966236,7,4,licensed,yes,NULL
1673701976,aec6c2257c3501f3654f5bcc96a6311b,PennController,23,0,Experiment,NULL,Scale,q,Choice,1,1673701975625,7,4,licensed,yes,NULL
1673701976,aec6c2257c3501f3654f5bcc96a6311b,PennController,23,0,Experiment,NULL,PennController,23,_Trial_,End,1673701975629,7,4,licensed,yes,NULL
#
# Results on Sat, 14 Jan 2023 13:48:05 GMT
# USER AGENT: Mozilla/5.0 (Linux; Android 10; STK-L21) AppleWebKit/537.36 (KHTML, like Gecko) Chrome/108.0.0.0 Mobile Safari/537.36
# Design number was non-random = 4
#
# Columns below this comment are as follows:
# 1. Results reception time.
# 2. MD5 hash of participant's IP address.
# 3. Controller name.
# 4. Order number of item.
# 5. Inner element number.
# 6. Label.
# 7. Latin Square Group.
# 8. PennElementType.
# 9. PennElementName.
# 10. Parameter.
# 11. Value.
# 12. EventTime.
# 13. Comments.
1673704085,45f6217b715b587cd2c959a486dc578d,PennController,1,0,Consent,NULL,PennController,0,_Trial_,Start,1673703903528,NULL
1673704085,45f6217b715b587cd2c959a486dc578d,PennController,1,0,Consent,NULL,TextInput,input_name,First,,1673703908857,Unidentified
1673704085,45f6217b715b587cd2c959a486dc578d,PennController,1,0,Consent,NULL,TextInput,input_name,Final,yaren ,1673703911737,NULL
1673704085,45f6217b715b587cd2c959a486dc578d,PennController,1,0,Consent,NULL,PennController,0,_Trial_,End,1673703911742,NULL
1673704085,45f6217b715b587cd2c959a486dc578d,PennController,2,0,ExpInstructions,NULL,PennController,1,_Trial_,Start,1673703911768,NULL
1673704085,45f6217b715b587cd2c959a486dc578d,PennController,2,0,ExpInstructions,NULL,PennController,1,_Trial_,End,1673703913338,NULL
1673704085,45f6217b715b587cd2c959a486dc578d,PennController,3,0,PracticeInstructions,NULL,PennController,2,_Trial_,Start,1673703913348,NULL
1673704085,45f6217b715b587cd2c959a486dc578d,PennController,3,0,PracticeInstructions,NULL,PennController,2,_Trial_,End,1673703914587,NULL
1673704085,45f6217b715b587cd2c959a486dc578d,PennController,5,0,PracticeTrial,NULL,PennController,6,_Trial_,Start,1673703914596,NULL
1673704085,45f6217b715b587cd2c959a486dc578d,PennController,5,0,PracticeTrial,NULL,Text,FlashSentence,Print,NA,1673703914877,NULL
1673704085,45f6217b715b587cd2c959a486dc578d,PennController,5,0,PracticeTrial,NULL,Scale,q,Choice,5,1673703928972,NULL
1673704085,45f6217b715b587cd2c959a486dc578d,PennController,5,0,PracticeTrial,NULL,PennController,6,_Trial_,End,1673703928985,NULL
1673704085,45f6217b715b587cd2c959a486dc578d,PennController,4,0,PracticeTrial,NULL,PennController,5,_Trial_,Start,1673703928997,NULL
1673704085,45f6217b715b587cd2c959a486dc578d,PennController,4,0,PracticeTrial,NULL,Text,FlashSentence,Print,NA,1673703929266,NULL
1673704085,45f6217b715b587cd2c959a486dc578d,PennController,4,0,PracticeTrial,NULL,Scale,q,Choice,5,1673703933612,NULL
1673704085,45f6217b715b587cd2c959a486dc578d,PennController,4,0,PracticeTrial,NULL,PennController,5,_Trial_,End,1673703933626,NULL
1673704085,45f6217b715b587cd2c959a486dc578d,PennController,6,0,PracticeTrial,NULL,PennController,7,_Trial_,Start,1673703933640,NULL
1673704085,45f6217b715b587cd2c959a486dc578d,PennController,6,0,PracticeTrial,NULL,Text,FlashSentence,Print,NA,1673703933911,NULL
1673704085,45f6217b715b587cd2c959a486dc578d,PennController,6,0,PracticeTrial,NULL,Scale,q,Choice,2,1673703939125,NULL
1673704085,45f6217b715b587cd2c959a486dc578d,PennController,6,0,PracticeTrial,NULL,PennController,7,_Trial_,End,1673703939136,NULL
1673704085,45f6217b715b587cd2c959a486dc578d,PennController,7,0,expstarts,NULL,PennController,3,_Trial_,Start,1673703939148,NULL
1673704085,45f6217b715b587cd2c959a486dc578d,PennController,7,0,expstarts,NULL,PennController,3,_Trial_,End,1673703944164,NULL
# 13. Item.
# 14. Group.
# 15. License Type.
# 16. ECM.
# 17. Comments.
1673704085,45f6217b715b587cd2c959a486dc578d,PennController,29,0,Experiment,NULL,PennController,29,_Trial_,Start,1673703944177,13,5,long-distance,yes,NULL
1673704085,45f6217b715b587cd2c959a486dc578d,PennController,29,0,Experiment,NULL,Text,FlashSentence,Print,NA,1673703944448,13,5,long-distance,yes,NULL
1673704085,45f6217b715b587cd2c959a486dc578d,PennController,29,0,Experiment,NULL,Scale,q,Choice,1,1673703950066,13,5,long-distance,yes,NULL
1673704085,45f6217b715b587cd2c959a486dc578d,PennController,29,0,Experiment,NULL,PennController,29,_Trial_,End,1673703950084,13,5,long-distance,yes,NULL
# 13. Comments.
1673704085,45f6217b715b587cd2c959a486dc578d,PennController,9,0,Filler,NULL,PennController,9,_Trial_,Start,1673703950099,NULL
1673704085,45f6217b715b587cd2c959a486dc578d,PennController,9,0,Filler,NULL,Text,FlashSentence,Print,NA,1673703950370,NULL
1673704085,45f6217b715b587cd2c959a486dc578d,PennController,9,0,Filler,NULL,Scale,q,Choice,5,1673703959675,NULL
1673704085,45f6217b715b587cd2c959a486dc578d,PennController,9,0,Filler,NULL,PennController,9,_Trial_,End,1673703959686,NULL
# 13. Item.
# 14. Group.
# 15. License Type.
# 16. ECM.
# 17. Comments.
1673704085,45f6217b715b587cd2c959a486dc578d,PennController,17,0,Experiment,NULL,PennController,17,_Trial_,Start,1673703959697,1,5,long-distance,yes,NULL
1673704085,45f6217b715b587cd2c959a486dc578d,PennController,17,0,Experiment,NULL,Text,FlashSentence,Print,NA,1673703959962,1,5,long-distance,yes,NULL
1673704085,45f6217b715b587cd2c959a486dc578d,PennController,17,0,Experiment,NULL,Scale,q,Choice,1,1673703963873,1,5,long-distance,yes,NULL
1673704085,45f6217b715b587cd2c959a486dc578d,PennController,17,0,Experiment,NULL,PennController,17,_Trial_,End,1673703963881,1,5,long-distance,yes,NULL
1673704085,45f6217b715b587cd2c959a486dc578d,PennController,34,0,Experiment,NULL,PennController,34,_Trial_,Start,1673703963890,18,5,licensed,yes,NULL
1673704085,45f6217b715b587cd2c959a486dc578d,PennController,34,0,Experiment,NULL,Text,FlashSentence,Print,NA,1673703964153,18,5,licensed,yes,NULL
1673704085,45f6217b715b587cd2c959a486dc578d,PennController,34,0,Experiment,NULL,Scale,q,Choice,5,1673703970411,18,5,licensed,yes,NULL
1673704085,45f6217b715b587cd2c959a486dc578d,PennController,34,0,Experiment,NULL,PennController,34,_Trial_,End,1673703970420,18,5,licensed,yes,NULL
# 13. Comments.
1673704085,45f6217b715b587cd2c959a486dc578d,PennController,16,0,Filler,NULL,PennController,16,_Trial_,Start,1673703970429,NULL
1673704085,45f6217b715b587cd2c959a486dc578d,PennController,16,0,Filler,NULL,Text,FlashSentence,Print,NA,1673703970696,NULL
1673704085,45f6217b715b587cd2c959a486dc578d,PennController,16,0,Filler,NULL,Scale,q,Choice,5,1673703974249,NULL
1673704085,45f6217b715b587cd2c959a486dc578d,PennController,16,0,Filler,NULL,PennController,16,_Trial_,End,1673703974260,NULL
# 13. Item.
# 14. Group.
# 15. License Type.
# 16. ECM.
# 17. Comments.
1673704085,45f6217b715b587cd2c959a486dc578d,PennController,20,0,Experiment,NULL,PennController,20,_Trial_,Start,1673703974268,4,5,long-distance,no,NULL
1673704085,45f6217b715b587cd2c959a486dc578d,PennController,20,0,Experiment,NULL,Text,FlashSentence,Print,NA,1673703974536,4,5,long-distance,no,NULL
1673704085,45f6217b715b587cd2c959a486dc578d,PennController,20,0,Experiment,NULL,Scale,q,Choice,1,1673703983830,4,5,long-distance,no,NULL
1673704085,45f6217b715b587cd2c959a486dc578d,PennController,20,0,Experiment,NULL,PennController,20,_Trial_,End,1673703983840,4,5,long-distance,no,NULL
1673704085,45f6217b715b587cd2c959a486dc578d,PennController,30,0,Experiment,NULL,PennController,30,_Trial_,Start,1673703983849,14,5,unlicensed,yes,NULL
1673704085,45f6217b715b587cd2c959a486dc578d,PennController,30,0,Experiment,NULL,Text,FlashSentence,Print,NA,1673703984116,14,5,unlicensed,yes,NULL
1673704085,45f6217b715b587cd2c959a486dc578d,PennController,30,0,Experiment,NULL,Scale,q,Choice,1,1673703988177,14,5,unlicensed,yes,NULL
1673704085,45f6217b715b587cd2c959a486dc578d,PennController,30,0,Experiment,NULL,PennController,30,_Trial_,End,1673703988193,14,5,unlicensed,yes,NULL
# 13. Comments.
1673704085,45f6217b715b587cd2c959a486dc578d,PennController,14,0,Filler,NULL,PennController,14,_Trial_,Start,1673703988204,NULL
1673704085,45f6217b715b587cd2c959a486dc578d,PennController,14,0,Filler,NULL,Text,FlashSentence,Print,NA,1673703988474,NULL
1673704085,45f6217b715b587cd2c959a486dc578d,PennController,14,0,Filler,NULL,Scale,q,Choice,1,1673703993067,NULL
1673704085,45f6217b715b587cd2c959a486dc578d,PennController,14,0,Filler,NULL,PennController,14,_Trial_,End,1673703993080,NULL
# 13. Item.
# 14. Group.
# 15. License Type.
# 16. ECM.
# 17. Comments.
1673704085,45f6217b715b587cd2c959a486dc578d,PennController,28,0,Experiment,NULL,PennController,28,_Trial_,Start,1673703993090,12,5,licensed,yes,NULL
1673704085,45f6217b715b587cd2c959a486dc578d,PennController,28,0,Experiment,NULL,Text,FlashSentence,Print,NA,1673703993358,12,5,licensed,yes,NULL
1673704085,45f6217b715b587cd2c959a486dc578d,PennController,28,0,Experiment,NULL,Scale,q,Choice,4,1673703997937,12,5,licensed,yes,NULL
1673704085,45f6217b715b587cd2c959a486dc578d,PennController,28,0,Experiment,NULL,PennController,28,_Trial_,End,1673703997953,12,5,licensed,yes,NULL
1673704085,45f6217b715b587cd2c959a486dc578d,PennController,18,0,Experiment,NULL,PennController,18,_Trial_,Start,1673703997965,2,5,unlicensed,yes,NULL
1673704085,45f6217b715b587cd2c959a486dc578d,PennController,18,0,Experiment,NULL,Text,FlashSentence,Print,NA,1673703998235,2,5,unlicensed,yes,NULL
1673704085,45f6217b715b587cd2c959a486dc578d,PennController,18,0,Experiment,NULL,Scale,q,Choice,1,1673704001058,2,5,unlicensed,yes,NULL
1673704085,45f6217b715b587cd2c959a486dc578d,PennController,18,0,Experiment,NULL,PennController,18,_Trial_,End,1673704001066,2,5,unlicensed,yes,NULL
# 13. Comments.
1673704085,45f6217b715b587cd2c959a486dc578d,PennController,11,0,Filler,NULL,PennController,11,_Trial_,Start,1673704001075,NULL
1673704085,45f6217b715b587cd2c959a486dc578d,PennController,11,0,Filler,NULL,Text,FlashSentence,Print,NA,1673704001342,NULL
1673704085,45f6217b715b587cd2c959a486dc578d,PennController,11,0,Filler,NULL,Scale,q,Choice,5,1673704005760,NULL
1673704085,45f6217b715b587cd2c959a486dc578d,PennController,11,0,Filler,NULL,PennController,11,_Trial_,End,1673704005769,NULL
# 13. Item.
# 14. Group.
# 15. License Type.
# 16. ECM.
# 17. Comments.
1673704085,45f6217b715b587cd2c959a486dc578d,PennController,23,0,Experiment,NULL,PennController,23,_Trial_,Start,1673704005777,7,5,long-distance,yes,NULL
1673704085,45f6217b715b587cd2c959a486dc578d,PennController,23,0,Experiment,NULL,Text,FlashSentence,Print,NA,1673704006045,7,5,long-distance,yes,NULL
1673704085,45f6217b715b587cd2c959a486dc578d,PennController,23,0,Experiment,NULL,Scale,q,Choice,1,1673704010539,7,5,long-distance,yes,NULL
1673704085,45f6217b715b587cd2c959a486dc578d,PennController,23,0,Experiment,NULL,PennController,23,_Trial_,End,1673704010554,7,5,long-distance,yes,NULL
1673704085,45f6217b715b587cd2c959a486dc578d,PennController,32,0,Experiment,NULL,PennController,32,_Trial_,Start,1673704010565,16,5,long-distance,no,NULL
1673704085,45f6217b715b587cd2c959a486dc578d,PennController,32,0,Experiment,NULL,Text,FlashSentence,Print,NA,1673704010833,16,5,long-distance,no,NULL
1673704085,45f6217b715b587cd2c959a486dc578d,PennController,32,0,Experiment,NULL,Scale,q,Choice,5,1673704013721,16,5,long-distance,no,NULL
1673704085,45f6217b715b587cd2c959a486dc578d,PennController,32,0,Experiment,NULL,PennController,32,_Trial_,End,1673704013729,16,5,long-distance,no,NULL
# 13. Comments.
1673704085,45f6217b715b587cd2c959a486dc578d,PennController,13,0,Filler,NULL,PennController,13,_Trial_,Start,1673704013738,NULL
1673704085,45f6217b715b587cd2c959a486dc578d,PennController,13,0,Filler,NULL,Text,FlashSentence,Print,NA,1673704014005,NULL
1673704085,45f6217b715b587cd2c959a486dc578d,PennController,13,0,Filler,NULL,Scale,q,Choice,5,1673704021936,NULL
1673704085,45f6217b715b587cd2c959a486dc578d,PennController,13,0,Filler,NULL,PennController,13,_Trial_,End,1673704021946,NULL
# 13. Item.
# 14. Group.
# 15. License Type.
# 16. ECM.
# 17. Comments.
1673704085,45f6217b715b587cd2c959a486dc578d,PennController,33,0,Experiment,NULL,PennController,33,_Trial_,Start,1673704021954,17,5,unlicensed,no,NULL
1673704085,45f6217b715b587cd2c959a486dc578d,PennController,33,0,Experiment,NULL,Text,FlashSentence,Print,NA,1673704022221,17,5,unlicensed,no,NULL
1673704085,45f6217b715b587cd2c959a486dc578d,PennController,33,0,Experiment,NULL,Scale,q,Choice,1,1673704026307,17,5,unlicensed,no,NULL
1673704085,45f6217b715b587cd2c959a486dc578d,PennController,33,0,Experiment,NULL,PennController,33,_Trial_,End,1673704026320,17,5,unlicensed,no,NULL
1673704085,45f6217b715b587cd2c959a486dc578d,PennController,24,0,Experiment,NULL,PennController,24,_Trial_,Start,1673704026330,8,5,unlicensed,yes,NULL
1673704085,45f6217b715b587cd2c959a486dc578d,PennController,24,0,Experiment,NULL,Text,FlashSentence,Print,NA,1673704026599,8,5,unlicensed,yes,NULL
1673704085,45f6217b715b587cd2c959a486dc578d,PennController,24,0,Experiment,NULL,Scale,q,Choice,1,1673704029100,8,5,unlicensed,yes,NULL
1673704085,45f6217b715b587cd2c959a486dc578d,PennController,24,0,Experiment,NULL,PennController,24,_Trial_,End,1673704029110,8,5,unlicensed,yes,NULL
# 13. Comments.
1673704085,45f6217b715b587cd2c959a486dc578d,PennController,12,0,Filler,NULL,PennController,12,_Trial_,Start,1673704029117,NULL
1673704085,45f6217b715b587cd2c959a486dc578d,PennController,12,0,Filler,NULL,Text,FlashSentence,Print,NA,1673704029382,NULL
1673704085,45f6217b715b587cd2c959a486dc578d,PennController,12,0,Filler,NULL,Scale,q,Choice,5,1673704035548,NULL
1673704085,45f6217b715b587cd2c959a486dc578d,PennController,12,0,Filler,NULL,PennController,12,_Trial_,End,1673704035561,NULL
# 13. Item.
# 14. Group.
# 15. License Type.
# 16. ECM.
# 17. Comments.
1673704085,45f6217b715b587cd2c959a486dc578d,PennController,19,0,Experiment,NULL,PennController,19,_Trial_,Start,1673704035569,3,5,licensed,no,NULL
1673704085,45f6217b715b587cd2c959a486dc578d,PennController,19,0,Experiment,NULL,Text,FlashSentence,Print,NA,1673704035837,3,5,licensed,no,NULL
1673704085,45f6217b715b587cd2c959a486dc578d,PennController,19,0,Experiment,NULL,Scale,q,Choice,5,1673704040119,3,5,licensed,no,NULL
1673704085,45f6217b715b587cd2c959a486dc578d,PennController,19,0,Experiment,NULL,PennController,19,_Trial_,End,1673704040133,3,5,licensed,no,NULL
1673704085,45f6217b715b587cd2c959a486dc578d,PennController,25,0,Experiment,NULL,PennController,25,_Trial_,Start,1673704040141,9,5,licensed,no,NULL
1673704085,45f6217b715b587cd2c959a486dc578d,PennController,25,0,Experiment,NULL,Text,FlashSentence,Print,NA,1673704040412,9,5,licensed,no,NULL
1673704085,45f6217b715b587cd2c959a486dc578d,PennController,25,0,Experiment,NULL,Scale,q,Choice,5,1673704044116,9,5,licensed,no,NULL
1673704085,45f6217b715b587cd2c959a486dc578d,PennController,25,0,Experiment,NULL,PennController,25,_Trial_,End,1673704044130,9,5,licensed,no,NULL
# 13. Comments.
1673704085,45f6217b715b587cd2c959a486dc578d,PennController,10,0,Filler,NULL,PennController,10,_Trial_,Start,1673704044141,NULL
1673704085,45f6217b715b587cd2c959a486dc578d,PennController,10,0,Filler,NULL,Text,FlashSentence,Print,NA,1673704044412,NULL
1673704085,45f6217b715b587cd2c959a486dc578d,PennController,10,0,Filler,NULL,Scale,q,Choice,5,1673704047683,NULL
1673704085,45f6217b715b587cd2c959a486dc578d,PennController,10,0,Filler,NULL,PennController,10,_Trial_,End,1673704047697,NULL
# 13. Item.
# 14. Group.
# 15. License Type.
# 16. ECM.
# 17. Comments.
1673704085,45f6217b715b587cd2c959a486dc578d,PennController,31,0,Experiment,NULL,PennController,31,_Trial_,Start,1673704047705,15,5,licensed,no,NULL
1673704085,45f6217b715b587cd2c959a486dc578d,PennController,31,0,Experiment,NULL,Text,FlashSentence,Print,NA,1673704047973,15,5,licensed,no,NULL
1673704085,45f6217b715b587cd2c959a486dc578d,PennController,31,0,Experiment,NULL,Scale,q,Choice,5,1673704053318,15,5,licensed,no,NULL
1673704085,45f6217b715b587cd2c959a486dc578d,PennController,31,0,Experiment,NULL,PennController,31,_Trial_,End,1673704053327,15,5,licensed,no,NULL
1673704085,45f6217b715b587cd2c959a486dc578d,PennController,21,0,Experiment,NULL,PennController,21,_Trial_,Start,1673704053336,5,5,unlicensed,no,NULL
1673704085,45f6217b715b587cd2c959a486dc578d,PennController,21,0,Experiment,NULL,Text,FlashSentence,Print,NA,1673704053606,5,5,unlicensed,no,NULL
1673704085,45f6217b715b587cd2c959a486dc578d,PennController,21,0,Experiment,NULL,Scale,q,Choice,1,1673704057043,5,5,unlicensed,no,NULL
1673704085,45f6217b715b587cd2c959a486dc578d,PennController,21,0,Experiment,NULL,PennController,21,_Trial_,End,1673704057056,5,5,unlicensed,no,NULL
# 13. Comments.
1673704085,45f6217b715b587cd2c959a486dc578d,PennController,15,0,Filler,NULL,PennController,15,_Trial_,Start,1673704057064,NULL
1673704085,45f6217b715b587cd2c959a486dc578d,PennController,15,0,Filler,NULL,Text,FlashSentence,Print,NA,1673704057332,NULL
1673704085,45f6217b715b587cd2c959a486dc578d,PennController,15,0,Filler,NULL,Scale,q,Choice,1,1673704064427,NULL
1673704085,45f6217b715b587cd2c959a486dc578d,PennController,15,0,Filler,NULL,PennController,15,_Trial_,End,1673704064439,NULL
# 13. Item.
# 14. Group.
# 15. License Type.
# 16. ECM.
# 17. Comments.
1673704085,45f6217b715b587cd2c959a486dc578d,PennController,22,0,Experiment,NULL,PennController,22,_Trial_,Start,1673704064448,6,5,licensed,yes,NULL
1673704085,45f6217b715b587cd2c959a486dc578d,PennController,22,0,Experiment,NULL,Text,FlashSentence,Print,NA,1673704064719,6,5,licensed,yes,NULL
1673704085,45f6217b715b587cd2c959a486dc578d,PennController,22,0,Experiment,NULL,Scale,q,Choice,5,1673704067635,6,5,licensed,yes,NULL
1673704085,45f6217b715b587cd2c959a486dc578d,PennController,22,0,Experiment,NULL,PennController,22,_Trial_,End,1673704067644,6,5,licensed,yes,NULL
1673704085,45f6217b715b587cd2c959a486dc578d,PennController,26,0,Experiment,NULL,PennController,26,_Trial_,Start,1673704067652,10,5,long-distance,no,NULL
1673704085,45f6217b715b587cd2c959a486dc578d,PennController,26,0,Experiment,NULL,Text,FlashSentence,Print,NA,1673704067923,10,5,long-distance,no,NULL
1673704085,45f6217b715b587cd2c959a486dc578d,PennController,26,0,Experiment,NULL,Scale,q,Choice,3,1673704075057,10,5,long-distance,no,NULL
1673704085,45f6217b715b587cd2c959a486dc578d,PennController,26,0,Experiment,NULL,PennController,26,_Trial_,End,1673704075072,10,5,long-distance,no,NULL
# 13. Comments.
1673704085,45f6217b715b587cd2c959a486dc578d,PennController,8,0,Filler,NULL,PennController,8,_Trial_,Start,1673704075081,NULL
1673704085,45f6217b715b587cd2c959a486dc578d,PennController,8,0,Filler,NULL,Text,FlashSentence,Print,NA,1673704075344,NULL
1673704085,45f6217b715b587cd2c959a486dc578d,PennController,8,0,Filler,NULL,Scale,q,Choice,5,1673704079278,NULL
1673704085,45f6217b715b587cd2c959a486dc578d,PennController,8,0,Filler,NULL,PennController,8,_Trial_,End,1673704079286,NULL
# 13. Item.
# 14. Group.
# 15. License Type.
# 16. ECM.
# 17. Comments.
1673704085,45f6217b715b587cd2c959a486dc578d,PennController,27,0,Experiment,NULL,PennController,27,_Trial_,Start,1673704079293,11,5,unlicensed,no,NULL
1673704085,45f6217b715b587cd2c959a486dc578d,PennController,27,0,Experiment,NULL,Text,FlashSentence,Print,NA,1673704079563,11,5,unlicensed,no,NULL
1673704085,45f6217b715b587cd2c959a486dc578d,PennController,27,0,Experiment,NULL,Scale,q,Choice,1,1673704085261,11,5,unlicensed,no,NULL
1673704085,45f6217b715b587cd2c959a486dc578d,PennController,27,0,Experiment,NULL,PennController,27,_Trial_,End,1673704085271,11,5,unlicensed,no,NULL
#
# Results on Sat, 14 Jan 2023 16:58:51 GMT
# USER AGENT: Mozilla/5.0 (Linux; U; Android 10; tr-tr; Redmi Note 8 Build/QKQ1.200114.002) AppleWebKit/537.36 (KHTML, like Gecko) Version/4.0 Chrome/100.0.4896.127 Mobile Safari/537.36 XiaoMi/MiuiBrowser/13.22.0-gn
# Design number was non-random = 5
#
# Columns below this comment are as follows:
# 1. Results reception time.
# 2. MD5 hash of participant's IP address.
# 3. Controller name.
# 4. Order number of item.
# 5. Inner element number.
# 6. Label.
# 7. Latin Square Group.
# 8. PennElementType.
# 9. PennElementName.
# 10. Parameter.
# 11. Value.
# 12. EventTime.
# 13. Comments.
1673715531,179b38467da7bf7c90c77ae6c9051838,PennController,1,0,Consent,NULL,PennController,0,_Trial_,Start,1673715266958,NULL
1673715531,179b38467da7bf7c90c77ae6c9051838,PennController,1,0,Consent,NULL,TextInput,input_name,First,,1673715281471,Unidentified
1673715531,179b38467da7bf7c90c77ae6c9051838,PennController,1,0,Consent,NULL,TextInput,input_name,Final,Mehmet Ali Dalar ,1673715284790,NULL
1673715531,179b38467da7bf7c90c77ae6c9051838,PennController,1,0,Consent,NULL,PennController,0,_Trial_,End,1673715284793,NULL
1673715531,179b38467da7bf7c90c77ae6c9051838,PennController,2,0,ExpInstructions,NULL,PennController,1,_Trial_,Start,1673715284869,NULL
1673715531,179b38467da7bf7c90c77ae6c9051838,PennController,2,0,ExpInstructions,NULL,PennController,1,_Trial_,End,1673715287766,NULL
1673715531,179b38467da7bf7c90c77ae6c9051838,PennController,3,0,PracticeInstructions,NULL,PennController,2,_Trial_,Start,1673715287778,NULL
1673715531,179b38467da7bf7c90c77ae6c9051838,PennController,3,0,PracticeInstructions,NULL,PennController,2,_Trial_,End,1673715290057,NULL
1673715531,179b38467da7bf7c90c77ae6c9051838,PennController,5,0,PracticeTrial,NULL,PennController,6,_Trial_,Start,1673715290067,NULL
1673715531,179b38467da7bf7c90c77ae6c9051838,PennController,5,0,PracticeTrial,NULL,Text,FlashSentence,Print,NA,1673715290353,NULL
1673715531,179b38467da7bf7c90c77ae6c9051838,PennController,5,0,PracticeTrial,NULL,Scale,q,Choice,2,1673715312353,NULL
1673715531,179b38467da7bf7c90c77ae6c9051838,PennController,5,0,PracticeTrial,NULL,PennController,6,_Trial_,End,1673715312368,NULL
1673715531,179b38467da7bf7c90c77ae6c9051838,PennController,4,0,PracticeTrial,NULL,PennController,5,_Trial_,Start,1673715312375,NULL
1673715531,179b38467da7bf7c90c77ae6c9051838,PennController,4,0,PracticeTrial,NULL,Text,FlashSentence,Print,NA,1673715312644,NULL
1673715531,179b38467da7bf7c90c77ae6c9051838,PennController,4,0,PracticeTrial,NULL,Scale,q,Choice,4,1673715326033,NULL
1673715531,179b38467da7bf7c90c77ae6c9051838,PennController,4,0,PracticeTrial,NULL,PennController,5,_Trial_,End,1673715326040,NULL
1673715531,179b38467da7bf7c90c77ae6c9051838,PennController,6,0,PracticeTrial,NULL,PennController,7,_Trial_,Start,1673715326047,NULL
1673715531,179b38467da7bf7c90c77ae6c9051838,PennController,6,0,PracticeTrial,NULL,Text,FlashSentence,Print,NA,1673715326322,NULL
1673715531,179b38467da7bf7c90c77ae6c9051838,PennController,6,0,PracticeTrial,NULL,Scale,q,Choice,3,1673715338239,NULL
1673715531,179b38467da7bf7c90c77ae6c9051838,PennController,6,0,PracticeTrial,NULL,PennController,7,_Trial_,End,1673715338245,NULL
1673715531,179b38467da7bf7c90c77ae6c9051838,PennController,7,0,expstarts,NULL,PennController,3,_Trial_,Start,1673715338252,NULL
1673715531,179b38467da7bf7c90c77ae6c9051838,PennController,7,0,expstarts,NULL,PennController,3,_Trial_,End,1673715343273,NULL
# 13. Item.
# 14. Group.
# 15. License Type.
# 16. ECM.
# 17. Comments.
1673715531,179b38467da7bf7c90c77ae6c9051838,PennController,28,0,Experiment,NULL,PennController,28,_Trial_,Start,1673715343288,12,6,long-distance,yes,NULL
1673715531,179b38467da7bf7c90c77ae6c9051838,PennController,28,0,Experiment,NULL,Text,FlashSentence,Print,NA,1673715343560,12,6,long-distance,yes,NULL
1673715531,179b38467da7bf7c90c77ae6c9051838,PennController,28,0,Experiment,NULL,Scale,q,Choice,2,1673715352702,12,6,long-distance,yes,NULL
1673715531,179b38467da7bf7c90c77ae6c9051838,PennController,28,0,Experiment,NULL,PennController,28,_Trial_,End,1673715352716,12,6,long-distance,yes,NULL
# 13. Comments.
1673715531,179b38467da7bf7c90c77ae6c9051838,PennController,16,0,Filler,NULL,PennController,16,_Trial_,Start,1673715352727,NULL
1673715531,179b38467da7bf7c90c77ae6c9051838,PennController,16,0,Filler,NULL,Text,FlashSentence,Print,NA,1673715352994,NULL
1673715531,179b38467da7bf7c90c77ae6c9051838,PennController,16,0,Filler,NULL,Scale,q,Choice,4,1673715358566,NULL
1673715531,179b38467da7bf7c90c77ae6c9051838,PennController,16,0,Filler,NULL,PennController,16,_Trial_,End,1673715358600,NULL
