#
# Results on Fri, 13 Jan 2023 12:08:33 GMT
# USER AGENT: Mozilla/5.0 (iPhone; CPU iPhone OS 16_1_2 like Mac OS X) AppleWebKit/605.1.15 (KHTML, like Gecko) Version/16.1 Mobile/15E148 Safari/604.1
# Design number was non-random = 0
#
# Columns below this comment are as follows:
# 1. Results reception time.
# 2. MD5 hash of participant's IP address.
# 3. Controller name.
# 4. Order number of item.
# 5. Inner element number.
# 6. Label.
# 7. Latin Square Group.
# 8. PennElementType.
# 9. PennElementName.
# 10. Parameter.
# 11. Value.
# 12. EventTime.
# 13. Comments.
1673611713,5071d942e29abd835fc80c68a8587d42,PennController,1,0,Consent,NULL,PennController,0,_Trial_,Start,1673611264639,NULL
1673611713,5071d942e29abd835fc80c68a8587d42,PennController,1,0,Consent,NULL,TextInput,input_name,First,,1673611268882,K
1673611713,5071d942e29abd835fc80c68a8587d42,PennController,1,0,Consent,NULL,TextInput,input_name,Final,Kübra Yıldırım,1673611273447,NULL
1673611713,5071d942e29abd835fc80c68a8587d42,PennController,1,0,Consent,NULL,PennController,0,_Trial_,End,1673611273448,NULL
1673611713,5071d942e29abd835fc80c68a8587d42,PennController,2,0,ExpInstructions,NULL,PennController,1,_Trial_,Start,1673611273459,NULL
1673611713,5071d942e29abd835fc80c68a8587d42,PennController,2,0,ExpInstructions,NULL,PennController,1,_Trial_,End,1673611284027,NULL
1673611713,5071d942e29abd835fc80c68a8587d42,PennController,3,0,PracticeInstructions,NULL,PennController,2,_Trial_,Start,1673611284040,NULL
1673611713,5071d942e29abd835fc80c68a8587d42,PennController,3,0,PracticeInstructions,NULL,PennController,2,_Trial_,End,1673611285727,NULL
1673611713,5071d942e29abd835fc80c68a8587d42,PennController,4,0,PracticeTrial,NULL,PennController,5,_Trial_,Start,1673611285740,NULL
1673611713,5071d942e29abd835fc80c68a8587d42,PennController,4,0,PracticeTrial,NULL,Text,FlashSentence,Print,NA,1673611286004,NULL
1673611713,5071d942e29abd835fc80c68a8587d42,PennController,4,0,PracticeTrial,NULL,Scale,q,Choice,5,1673611294733,NULL
1673611713,5071d942e29abd835fc80c68a8587d42,PennController,4,0,PracticeTrial,NULL,PennController,5,_Trial_,End,1673611294738,NULL
1673611713,5071d942e29abd835fc80c68a8587d42,PennController,6,0,PracticeTrial,NULL,PennController,7,_Trial_,Start,1673611294748,NULL
1673611713,5071d942e29abd835fc80c68a8587d42,PennController,6,0,PracticeTrial,NULL,Text,FlashSentence,Print,NA,1673611295009,NULL
1673611713,5071d942e29abd835fc80c68a8587d42,PennController,6,0,PracticeTrial,NULL,Scale,q,Choice,4,1673611325289,NULL
1673611713,5071d942e29abd835fc80c68a8587d42,PennController,6,0,PracticeTrial,NULL,PennController,7,_Trial_,End,1673611325295,NULL
1673611713,5071d942e29abd835fc80c68a8587d42,PennController,5,0,PracticeTrial,NULL,PennController,6,_Trial_,Start,1673611325306,NULL
1673611713,5071d942e29abd835fc80c68a8587d42,PennController,5,0,PracticeTrial,NULL,Text,FlashSentence,Print,NA,1673611325564,NULL
1673611713,5071d942e29abd835fc80c68a8587d42,PennController,5,0,PracticeTrial,NULL,Scale,q,Choice,1,1673611331781,NULL
1673611713,5071d942e29abd835fc80c68a8587d42,PennController,5,0,PracticeTrial,NULL,PennController,6,_Trial_,End,1673611331785,NULL
1673611713,5071d942e29abd835fc80c68a8587d42,PennController,7,0,expstarts,NULL,PennController,3,_Trial_,Start,1673611331793,NULL
1673611713,5071d942e29abd835fc80c68a8587d42,PennController,7,0,expstarts,NULL,PennController,3,_Trial_,End,1673611336803,NULL
# 13. Item.
# 14. Group.
# 15. License Type.
# 16. ECM.
# 17. Comments.
1673611713,5071d942e29abd835fc80c68a8587d42,PennController,31,0,Experiment,NULL,PennController,31,_Trial_,Start,1673611336814,15,1,unlicensed,no,NULL
1673611713,5071d942e29abd835fc80c68a8587d42,PennController,31,0,Experiment,NULL,Text,FlashSentence,Print,NA,1673611337073,15,1,unlicensed,no,NULL
1673611713,5071d942e29abd835fc80c68a8587d42,PennController,31,0,Experiment,NULL,Scale,q,Choice,1,1673611380737,15,1,unlicensed,no,NULL
1673611713,5071d942e29abd835fc80c68a8587d42,PennController,31,0,Experiment,NULL,PennController,31,_Trial_,End,1673611380741,15,1,unlicensed,no,NULL
1673611713,5071d942e29abd835fc80c68a8587d42,PennController,24,0,Experiment,NULL,PennController,24,_Trial_,Start,1673611380750,8,1,long-distance,no,NULL
1673611713,5071d942e29abd835fc80c68a8587d42,PennController,24,0,Experiment,NULL,Text,FlashSentence,Print,NA,1673611381009,8,1,long-distance,no,NULL
1673611713,5071d942e29abd835fc80c68a8587d42,PennController,24,0,Experiment,NULL,Scale,q,Choice,5,1673611385212,8,1,long-distance,no,NULL
1673611713,5071d942e29abd835fc80c68a8587d42,PennController,24,0,Experiment,NULL,PennController,24,_Trial_,End,1673611385215,8,1,long-distance,no,NULL
# 13. Comments.
1673611713,5071d942e29abd835fc80c68a8587d42,PennController,13,0,Filler,NULL,PennController,13,_Trial_,Start,1673611385223,NULL
1673611713,5071d942e29abd835fc80c68a8587d42,PennController,13,0,Filler,NULL,Text,FlashSentence,Print,NA,1673611385481,NULL
1673611713,5071d942e29abd835fc80c68a8587d42,PennController,13,0,Filler,NULL,Scale,q,Choice,5,1673611389070,NULL
1673611713,5071d942e29abd835fc80c68a8587d42,PennController,13,0,Filler,NULL,PennController,13,_Trial_,End,1673611389074,NULL
# 13. Item.
# 14. Group.
# 15. License Type.
# 16. ECM.
# 17. Comments.
1673611713,5071d942e29abd835fc80c68a8587d42,PennController,20,0,Experiment,NULL,PennController,20,_Trial_,Start,1673611389081,4,1,licensed,yes,NULL
1673611713,5071d942e29abd835fc80c68a8587d42,PennController,20,0,Experiment,NULL,Text,FlashSentence,Print,NA,1673611389340,4,1,licensed,yes,NULL
1673611713,5071d942e29abd835fc80c68a8587d42,PennController,20,0,Experiment,NULL,Scale,q,Choice,5,1673611397361,4,1,licensed,yes,NULL
1673611713,5071d942e29abd835fc80c68a8587d42,PennController,20,0,Experiment,NULL,PennController,20,_Trial_,End,1673611397364,4,1,licensed,yes,NULL
1673611713,5071d942e29abd835fc80c68a8587d42,PennController,21,0,Experiment,NULL,PennController,21,_Trial_,Start,1673611397371,5,1,long-distance,yes,NULL
1673611713,5071d942e29abd835fc80c68a8587d42,PennController,21,0,Experiment,NULL,Text,FlashSentence,Print,NA,1673611397629,5,1,long-distance,yes,NULL
1673611713,5071d942e29abd835fc80c68a8587d42,PennController,21,0,Experiment,NULL,Scale,q,Choice,5,1673611412886,5,1,long-distance,yes,NULL
1673611713,5071d942e29abd835fc80c68a8587d42,PennController,21,0,Experiment,NULL,PennController,21,_Trial_,End,1673611412888,5,1,long-distance,yes,NULL
# 13. Comments.
1673611713,5071d942e29abd835fc80c68a8587d42,PennController,15,0,Filler,NULL,PennController,15,_Trial_,Start,1673611412897,NULL
1673611713,5071d942e29abd835fc80c68a8587d42,PennController,15,0,Filler,NULL,Text,FlashSentence,Print,NA,1673611413154,NULL
1673611713,5071d942e29abd835fc80c68a8587d42,PennController,15,0,Filler,NULL,Scale,q,Choice,1,1673611426510,NULL
1673611713,5071d942e29abd835fc80c68a8587d42,PennController,15,0,Filler,NULL,PennController,15,_Trial_,End,1673611426513,NULL
# 13. Item.
# 14. Group.
# 15. License Type.
# 16. ECM.
# 17. Comments.
1673611713,5071d942e29abd835fc80c68a8587d42,PennController,23,0,Experiment,NULL,PennController,23,_Trial_,Start,1673611426522,7,1,licensed,no,NULL
1673611713,5071d942e29abd835fc80c68a8587d42,PennController,23,0,Experiment,NULL,Text,FlashSentence,Print,NA,1673611426779,7,1,licensed,no,NULL
1673611713,5071d942e29abd835fc80c68a8587d42,PennController,23,0,Experiment,NULL,Scale,q,Choice,5,1673611434655,7,1,licensed,no,NULL
1673611713,5071d942e29abd835fc80c68a8587d42,PennController,23,0,Experiment,NULL,PennController,23,_Trial_,End,1673611434658,7,1,licensed,no,NULL
1673611713,5071d942e29abd835fc80c68a8587d42,PennController,34,0,Experiment,NULL,PennController,34,_Trial_,Start,1673611434666,18,1,unlicensed,yes,NULL
1673611713,5071d942e29abd835fc80c68a8587d42,PennController,34,0,Experiment,NULL,Text,FlashSentence,Print,NA,1673611434922,18,1,unlicensed,yes,NULL
1673611713,5071d942e29abd835fc80c68a8587d42,PennController,34,0,Experiment,NULL,Scale,q,Choice,1,1673611438517,18,1,unlicensed,yes,NULL
1673611713,5071d942e29abd835fc80c68a8587d42,PennController,34,0,Experiment,NULL,PennController,34,_Trial_,End,1673611438520,18,1,unlicensed,yes,NULL
# 13. Comments.
1673611713,5071d942e29abd835fc80c68a8587d42,PennController,10,0,Filler,NULL,PennController,10,_Trial_,Start,1673611438528,NULL
1673611713,5071d942e29abd835fc80c68a8587d42,PennController,10,0,Filler,NULL,Text,FlashSentence,Print,NA,1673611438785,NULL
1673611713,5071d942e29abd835fc80c68a8587d42,PennController,10,0,Filler,NULL,Scale,q,Choice,5,1673611441509,NULL
1673611713,5071d942e29abd835fc80c68a8587d42,PennController,10,0,Filler,NULL,PennController,10,_Trial_,End,1673611441513,NULL
# 13. Item.
# 14. Group.
# 15. License Type.
# 16. ECM.
# 17. Comments.
1673611713,5071d942e29abd835fc80c68a8587d42,PennController,27,0,Experiment,NULL,PennController,27,_Trial_,Start,1673611441520,11,1,long-distance,yes,NULL
1673611713,5071d942e29abd835fc80c68a8587d42,PennController,27,0,Experiment,NULL,Text,FlashSentence,Print,NA,1673611441777,11,1,long-distance,yes,NULL
1673611713,5071d942e29abd835fc80c68a8587d42,PennController,27,0,Experiment,NULL,Scale,q,Choice,4,1673611460507,11,1,long-distance,yes,NULL
1673611713,5071d942e29abd835fc80c68a8587d42,PennController,27,0,Experiment,NULL,PennController,27,_Trial_,End,1673611460511,11,1,long-distance,yes,NULL
1673611713,5071d942e29abd835fc80c68a8587d42,PennController,32,0,Experiment,NULL,PennController,32,_Trial_,Start,1673611460518,16,1,licensed,yes,NULL
1673611713,5071d942e29abd835fc80c68a8587d42,PennController,32,0,Experiment,NULL,Text,FlashSentence,Print,NA,1673611460776,16,1,licensed,yes,NULL
1673611713,5071d942e29abd835fc80c68a8587d42,PennController,32,0,Experiment,NULL,Scale,q,Choice,5,1673611469500,16,1,licensed,yes,NULL
1673611713,5071d942e29abd835fc80c68a8587d42,PennController,32,0,Experiment,NULL,PennController,32,_Trial_,End,1673611469503,16,1,licensed,yes,NULL
# 13. Comments.
1673611713,5071d942e29abd835fc80c68a8587d42,PennController,9,0,Filler,NULL,PennController,9,_Trial_,Start,1673611469511,NULL
1673611713,5071d942e29abd835fc80c68a8587d42,PennController,9,0,Filler,NULL,Text,FlashSentence,Print,NA,1673611469768,NULL
1673611713,5071d942e29abd835fc80c68a8587d42,PennController,9,0,Filler,NULL,Scale,q,Choice,1,1673611473175,NULL
1673611713,5071d942e29abd835fc80c68a8587d42,PennController,9,0,Filler,NULL,PennController,9,_Trial_,End,1673611473178,NULL
# 13. Item.
# 14. Group.
# 15. License Type.
# 16. ECM.
# 17. Comments.
1673611713,5071d942e29abd835fc80c68a8587d42,PennController,33,0,Experiment,NULL,PennController,33,_Trial_,Start,1673611473186,17,1,long-distance,yes,NULL
1673611713,5071d942e29abd835fc80c68a8587d42,PennController,33,0,Experiment,NULL,Text,FlashSentence,Print,NA,1673611473442,17,1,long-distance,yes,NULL
1673611713,5071d942e29abd835fc80c68a8587d42,PennController,33,0,Experiment,NULL,Scale,q,Choice,5,1673611477358,17,1,long-distance,yes,NULL
1673611713,5071d942e29abd835fc80c68a8587d42,PennController,33,0,Experiment,NULL,PennController,33,_Trial_,End,1673611477361,17,1,long-distance,yes,NULL
1673611713,5071d942e29abd835fc80c68a8587d42,PennController,19,0,Experiment,NULL,PennController,19,_Trial_,Start,1673611477368,3,1,unlicensed,no,NULL
1673611713,5071d942e29abd835fc80c68a8587d42,PennController,19,0,Experiment,NULL,Text,FlashSentence,Print,NA,1673611477625,3,1,unlicensed,no,NULL
1673611713,5071d942e29abd835fc80c68a8587d42,PennController,19,0,Experiment,NULL,Scale,q,Choice,1,1673611483608,3,1,unlicensed,no,NULL
1673611713,5071d942e29abd835fc80c68a8587d42,PennController,19,0,Experiment,NULL,PennController,19,_Trial_,End,1673611483611,3,1,unlicensed,no,NULL
# 13. Comments.
1673611713,5071d942e29abd835fc80c68a8587d42,PennController,14,0,Filler,NULL,PennController,14,_Trial_,Start,1673611483619,NULL
1673611713,5071d942e29abd835fc80c68a8587d42,PennController,14,0,Filler,NULL,Text,FlashSentence,Print,NA,1673611483874,NULL
1673611713,5071d942e29abd835fc80c68a8587d42,PennController,14,0,Filler,NULL,Scale,q,Choice,1,1673611507105,NULL
1673611713,5071d942e29abd835fc80c68a8587d42,PennController,14,0,Filler,NULL,PennController,14,_Trial_,End,1673611507108,NULL
# 13. Item.
# 14. Group.
# 15. License Type.
# 16. ECM.
# 17. Comments.
1673611713,5071d942e29abd835fc80c68a8587d42,PennController,30,0,Experiment,NULL,PennController,30,_Trial_,Start,1673611507115,14,1,long-distance,no,NULL
1673611713,5071d942e29abd835fc80c68a8587d42,PennController,30,0,Experiment,NULL,Text,FlashSentence,Print,NA,1673611507374,14,1,long-distance,no,NULL
1673611713,5071d942e29abd835fc80c68a8587d42,PennController,30,0,Experiment,NULL,Scale,q,Choice,5,1673611511348,14,1,long-distance,no,NULL
1673611713,5071d942e29abd835fc80c68a8587d42,PennController,30,0,Experiment,NULL,PennController,30,_Trial_,End,1673611511351,14,1,long-distance,no,NULL
1673611713,5071d942e29abd835fc80c68a8587d42,PennController,29,0,Experiment,NULL,PennController,29,_Trial_,Start,1673611511358,13,1,licensed,no,NULL
1673611713,5071d942e29abd835fc80c68a8587d42,PennController,29,0,Experiment,NULL,Text,FlashSentence,Print,NA,1673611511616,13,1,licensed,no,NULL
1673611713,5071d942e29abd835fc80c68a8587d42,PennController,29,0,Experiment,NULL,Scale,q,Choice,5,1673611656900,13,1,licensed,no,NULL
1673611713,5071d942e29abd835fc80c68a8587d42,PennController,29,0,Experiment,NULL,PennController,29,_Trial_,End,1673611656903,13,1,licensed,no,NULL
# 13. Comments.
1673611713,5071d942e29abd835fc80c68a8587d42,PennController,16,0,Filler,NULL,PennController,16,_Trial_,Start,1673611656910,NULL
1673611713,5071d942e29abd835fc80c68a8587d42,PennController,16,0,Filler,NULL,Text,FlashSentence,Print,NA,1673611657167,NULL
1673611713,5071d942e29abd835fc80c68a8587d42,PennController,16,0,Filler,NULL,Scale,q,Choice,5,1673611660242,NULL
1673611713,5071d942e29abd835fc80c68a8587d42,PennController,16,0,Filler,NULL,PennController,16,_Trial_,End,1673611660244,NULL
# 13. Item.
# 14. Group.
# 15. License Type.
# 16. ECM.
# 17. Comments.
1673611713,5071d942e29abd835fc80c68a8587d42,PennController,28,0,Experiment,NULL,PennController,28,_Trial_,Start,1673611660252,12,1,unlicensed,yes,NULL
1673611713,5071d942e29abd835fc80c68a8587d42,PennController,28,0,Experiment,NULL,Text,FlashSentence,Print,NA,1673611660508,12,1,unlicensed,yes,NULL
1673611713,5071d942e29abd835fc80c68a8587d42,PennController,28,0,Experiment,NULL,Scale,q,Choice,1,1673611663074,12,1,unlicensed,yes,NULL
1673611713,5071d942e29abd835fc80c68a8587d42,PennController,28,0,Experiment,NULL,PennController,28,_Trial_,End,1673611663077,12,1,unlicensed,yes,NULL
1673611713,5071d942e29abd835fc80c68a8587d42,PennController,22,0,Experiment,NULL,PennController,22,_Trial_,Start,1673611663084,6,1,licensed,yes,NULL
1673611713,5071d942e29abd835fc80c68a8587d42,PennController,22,0,Experiment,NULL,Text,FlashSentence,Print,NA,1673611663340,6,1,licensed,yes,NULL
1673611713,5071d942e29abd835fc80c68a8587d42,PennController,22,0,Experiment,NULL,Scale,q,Choice,1,1673611669791,6,1,licensed,yes,NULL
1673611713,5071d942e29abd835fc80c68a8587d42,PennController,22,0,Experiment,NULL,PennController,22,_Trial_,End,1673611669794,6,1,licensed,yes,NULL
# 13. Comments.
1673611713,5071d942e29abd835fc80c68a8587d42,PennController,11,0,Filler,NULL,PennController,11,_Trial_,Start,1673611669801,NULL
1673611713,5071d942e29abd835fc80c68a8587d42,PennController,11,0,Filler,NULL,Text,FlashSentence,Print,NA,1673611670059,NULL
1673611713,5071d942e29abd835fc80c68a8587d42,PennController,11,0,Filler,NULL,Scale,q,Choice,1,1673611677282,NULL
1673611713,5071d942e29abd835fc80c68a8587d42,PennController,11,0,Filler,NULL,PennController,11,_Trial_,End,1673611677284,NULL
# 13. Item.
# 14. Group.
# 15. License Type.
# 16. ECM.
# 17. Comments.
1673611713,5071d942e29abd835fc80c68a8587d42,PennController,17,0,Experiment,NULL,PennController,17,_Trial_,Start,1673611677292,1,1,licensed,no,NULL
1673611713,5071d942e29abd835fc80c68a8587d42,PennController,17,0,Experiment,NULL,Text,FlashSentence,Print,NA,1673611677549,1,1,licensed,no,NULL
1673611713,5071d942e29abd835fc80c68a8587d42,PennController,17,0,Experiment,NULL,Scale,q,Choice,5,1673611681301,1,1,licensed,no,NULL
1673611713,5071d942e29abd835fc80c68a8587d42,PennController,17,0,Experiment,NULL,PennController,17,_Trial_,End,1673611681304,1,1,licensed,no,NULL
1673611713,5071d942e29abd835fc80c68a8587d42,PennController,25,0,Experiment,NULL,PennController,25,_Trial_,Start,1673611681311,9,1,unlicensed,no,NULL
1673611713,5071d942e29abd835fc80c68a8587d42,PennController,25,0,Experiment,NULL,Text,FlashSentence,Print,NA,1673611681568,9,1,unlicensed,no,NULL
1673611713,5071d942e29abd835fc80c68a8587d42,PennController,25,0,Experiment,NULL,Scale,q,Choice,1,1673611685106,9,1,unlicensed,no,NULL
1673611713,5071d942e29abd835fc80c68a8587d42,PennController,25,0,Experiment,NULL,PennController,25,_Trial_,End,1673611685109,9,1,unlicensed,no,NULL
# 13. Comments.
1673611713,5071d942e29abd835fc80c68a8587d42,PennController,12,0,Filler,NULL,PennController,12,_Trial_,Start,1673611685115,NULL
1673611713,5071d942e29abd835fc80c68a8587d42,PennController,12,0,Filler,NULL,Text,FlashSentence,Print,NA,1673611685370,NULL
1673611713,5071d942e29abd835fc80c68a8587d42,PennController,12,0,Filler,NULL,Scale,q,Choice,4,1673611693015,NULL
1673611713,5071d942e29abd835fc80c68a8587d42,PennController,12,0,Filler,NULL,PennController,12,_Trial_,End,1673611693017,NULL
# 13. Item.
# 14. Group.
# 15. License Type.
# 16. ECM.
# 17. Comments.
1673611713,5071d942e29abd835fc80c68a8587d42,PennController,18,0,Experiment,NULL,PennController,18,_Trial_,Start,1673611693024,2,1,long-distance,no,NULL
1673611713,5071d942e29abd835fc80c68a8587d42,PennController,18,0,Experiment,NULL,Text,FlashSentence,Print,NA,1673611693280,2,1,long-distance,no,NULL
1673611713,5071d942e29abd835fc80c68a8587d42,PennController,18,0,Experiment,NULL,Scale,q,Choice,5,1673611698564,2,1,long-distance,no,NULL
1673611713,5071d942e29abd835fc80c68a8587d42,PennController,18,0,Experiment,NULL,PennController,18,_Trial_,End,1673611698567,2,1,long-distance,no,NULL
1673611713,5071d942e29abd835fc80c68a8587d42,PennController,26,0,Experiment,NULL,PennController,26,_Trial_,Start,1673611698573,10,1,licensed,yes,NULL
1673611713,5071d942e29abd835fc80c68a8587d42,PennController,26,0,Experiment,NULL,Text,FlashSentence,Print,NA,1673611698830,10,1,licensed,yes,NULL
1673611713,5071d942e29abd835fc80c68a8587d42,PennController,26,0,Experiment,NULL,Scale,q,Choice,5,1673611704270,10,1,licensed,yes,NULL
1673611713,5071d942e29abd835fc80c68a8587d42,PennController,26,0,Experiment,NULL,PennController,26,_Trial_,End,1673611704273,10,1,licensed,yes,NULL
# 13. Comments.
1673611713,5071d942e29abd835fc80c68a8587d42,PennController,8,0,Filler,NULL,PennController,8,_Trial_,Start,1673611704280,NULL
1673611713,5071d942e29abd835fc80c68a8587d42,PennController,8,0,Filler,NULL,Text,FlashSentence,Print,NA,1673611704536,NULL
1673611713,5071d942e29abd835fc80c68a8587d42,PennController,8,0,Filler,NULL,Scale,q,Choice,5,1673611710805,NULL
1673611713,5071d942e29abd835fc80c68a8587d42,PennController,8,0,Filler,NULL,PennController,8,_Trial_,End,1673611710808,NULL
#
# Results on Sat, 14 Jan 2023 07:53:07 GMT
# USER AGENT: Mozilla/5.0 (Macintosh; Intel Mac OS X 10_15_7) AppleWebKit/605.1.15 (KHTML, like Gecko) Version/16.1 Safari/605.1.15
# Design number was non-random = 1
#
# Columns below this comment are as follows:
# 1. Results reception time.
# 2. MD5 hash of participant's IP address.
# 3. Controller name.
# 4. Order number of item.
# 5. Inner element number.
# 6. Label.
# 7. Latin Square Group.
# 8. PennElementType.
# 9. PennElementName.
# 10. Parameter.
# 11. Value.
# 12. EventTime.
# 13. Comments.
1673682787,4d0fc014ec1ca340094f9635ca394c34,PennController,1,0,Consent,NULL,PennController,0,_Trial_,Start,1673682390409,NULL
1673682787,4d0fc014ec1ca340094f9635ca394c34,PennController,1,0,Consent,NULL,PennController,0,_Trial_,End,1673682733030,NULL
1673682787,4d0fc014ec1ca340094f9635ca394c34,PennController,1,0,Consent,NULL,TextInput,input_name,Final,,1673682733030,NULL
1673682787,4d0fc014ec1ca340094f9635ca394c34,PennController,2,0,ExpInstructions,NULL,PennController,1,_Trial_,Start,1673682733036,NULL
1673682787,4d0fc014ec1ca340094f9635ca394c34,PennController,2,0,ExpInstructions,NULL,PennController,1,_Trial_,End,1673682734354,NULL
1673682787,4d0fc014ec1ca340094f9635ca394c34,PennController,3,0,PracticeInstructions,NULL,PennController,2,_Trial_,Start,1673682734357,NULL
1673682787,4d0fc014ec1ca340094f9635ca394c34,PennController,3,0,PracticeInstructions,NULL,PennController,2,_Trial_,End,1673682735326,NULL
1673682787,4d0fc014ec1ca340094f9635ca394c34,PennController,4,0,PracticeTrial,NULL,PennController,5,_Trial_,Start,1673682735328,NULL
1673682787,4d0fc014ec1ca340094f9635ca394c34,PennController,4,0,PracticeTrial,NULL,Text,FlashSentence,Print,NA,1673682735587,NULL
1673682787,4d0fc014ec1ca340094f9635ca394c34,PennController,4,0,PracticeTrial,NULL,Scale,q,Choice,2,1673682738392,NULL
1673682787,4d0fc014ec1ca340094f9635ca394c34,PennController,4,0,PracticeTrial,NULL,PennController,5,_Trial_,End,1673682738393,NULL
1673682787,4d0fc014ec1ca340094f9635ca394c34,PennController,6,0,PracticeTrial,NULL,PennController,7,_Trial_,Start,1673682738395,NULL
1673682787,4d0fc014ec1ca340094f9635ca394c34,PennController,6,0,PracticeTrial,NULL,Text,FlashSentence,Print,NA,1673682738654,NULL
1673682787,4d0fc014ec1ca340094f9635ca394c34,PennController,6,0,PracticeTrial,NULL,Scale,q,Choice,1,1673682739205,NULL
1673682787,4d0fc014ec1ca340094f9635ca394c34,PennController,6,0,PracticeTrial,NULL,PennController,7,_Trial_,End,1673682739206,NULL
1673682787,4d0fc014ec1ca340094f9635ca394c34,PennController,5,0,PracticeTrial,NULL,PennController,6,_Trial_,Start,1673682739207,NULL
1673682787,4d0fc014ec1ca340094f9635ca394c34,PennController,5,0,PracticeTrial,NULL,Text,FlashSentence,Print,NA,1673682739461,NULL
1673682787,4d0fc014ec1ca340094f9635ca394c34,PennController,5,0,PracticeTrial,NULL,Scale,q,Choice,4,1673682740407,NULL
1673682787,4d0fc014ec1ca340094f9635ca394c34,PennController,5,0,PracticeTrial,NULL,PennController,6,_Trial_,End,1673682740408,NULL
1673682787,4d0fc014ec1ca340094f9635ca394c34,PennController,7,0,expstarts,NULL,PennController,3,_Trial_,Start,1673682740409,NULL
1673682787,4d0fc014ec1ca340094f9635ca394c34,PennController,7,0,expstarts,NULL,PennController,3,_Trial_,End,1673682745413,NULL
# 13. Item.
# 14. Group.
# 15. License Type.
# 16. ECM.
# 17. Comments.
1673682787,4d0fc014ec1ca340094f9635ca394c34,PennController,21,0,Experiment,NULL,PennController,21,_Trial_,Start,1673682745418,5,2,unlicensed,yes,NULL
1673682787,4d0fc014ec1ca340094f9635ca394c34,PennController,21,0,Experiment,NULL,Text,FlashSentence,Print,NA,1673682745673,5,2,unlicensed,yes,NULL
1673682787,4d0fc014ec1ca340094f9635ca394c34,PennController,21,0,Experiment,NULL,Scale,q,Choice,4,1673682748837,5,2,unlicensed,yes,NULL
1673682787,4d0fc014ec1ca340094f9635ca394c34,PennController,21,0,Experiment,NULL,PennController,21,_Trial_,End,1673682748838,5,2,unlicensed,yes,NULL
# 13. Comments.
1673682787,4d0fc014ec1ca340094f9635ca394c34,PennController,15,0,Filler,NULL,PennController,15,_Trial_,Start,1673682748839,NULL
1673682787,4d0fc014ec1ca340094f9635ca394c34,PennController,15,0,Filler,NULL,Text,FlashSentence,Print,NA,1673682749095,NULL
1673682787,4d0fc014ec1ca340094f9635ca394c34,PennController,15,0,Filler,NULL,PennController,15,_Trial_,End,1673682749818,NULL
1673682787,4d0fc014ec1ca340094f9635ca394c34,PennController,15,0,Filler,NULL,Scale,q,Choice,3,1673682749818,NULL
# 13. Item.
# 14. Group.
# 15. License Type.
# 16. ECM.
# 17. Comments.
1673682787,4d0fc014ec1ca340094f9635ca394c34,PennController,29,0,Experiment,NULL,PennController,29,_Trial_,Start,1673682749819,13,2,long-distance,no,NULL
1673682787,4d0fc014ec1ca340094f9635ca394c34,PennController,29,0,Experiment,NULL,Text,FlashSentence,Print,NA,1673682750077,13,2,long-distance,no,NULL
1673682787,4d0fc014ec1ca340094f9635ca394c34,PennController,29,0,Experiment,NULL,PennController,29,_Trial_,End,1673682752052,13,2,long-distance,no,NULL
1673682787,4d0fc014ec1ca340094f9635ca394c34,PennController,29,0,Experiment,NULL,Scale,q,Choice,3,1673682752052,13,2,long-distance,no,NULL
1673682787,4d0fc014ec1ca340094f9635ca394c34,PennController,26,0,Experiment,NULL,PennController,26,_Trial_,Start,1673682752053,10,2,long-distance,yes,NULL
1673682787,4d0fc014ec1ca340094f9635ca394c34,PennController,26,0,Experiment,NULL,Text,FlashSentence,Print,NA,1673682752307,10,2,long-distance,yes,NULL
1673682787,4d0fc014ec1ca340094f9635ca394c34,PennController,26,0,Experiment,NULL,Scale,q,Choice,5,1673682753339,10,2,long-distance,yes,NULL
1673682787,4d0fc014ec1ca340094f9635ca394c34,PennController,26,0,Experiment,NULL,PennController,26,_Trial_,End,1673682753340,10,2,long-distance,yes,NULL
# 13. Comments.
1673682787,4d0fc014ec1ca340094f9635ca394c34,PennController,13,0,Filler,NULL,PennController,13,_Trial_,Start,1673682753341,NULL
1673682787,4d0fc014ec1ca340094f9635ca394c34,PennController,13,0,Filler,NULL,Text,FlashSentence,Print,NA,1673682753594,NULL
1673682787,4d0fc014ec1ca340094f9635ca394c34,PennController,13,0,Filler,NULL,Scale,q,Choice,3,1673682754140,NULL
1673682787,4d0fc014ec1ca340094f9635ca394c34,PennController,13,0,Filler,NULL,PennController,13,_Trial_,End,1673682754141,NULL
# 13. Item.
# 14. Group.
# 15. License Type.
# 16. ECM.
# 17. Comments.
1673682787,4d0fc014ec1ca340094f9635ca394c34,PennController,33,0,Experiment,NULL,PennController,33,_Trial_,Start,1673682754142,17,2,unlicensed,yes,NULL
1673682787,4d0fc014ec1ca340094f9635ca394c34,PennController,33,0,Experiment,NULL,Text,FlashSentence,Print,NA,1673682754397,17,2,unlicensed,yes,NULL
1673682787,4d0fc014ec1ca340094f9635ca394c34,PennController,33,0,Experiment,NULL,Scale,q,Choice,1,1673682755326,17,2,unlicensed,yes,NULL
1673682787,4d0fc014ec1ca340094f9635ca394c34,PennController,33,0,Experiment,NULL,PennController,33,_Trial_,End,1673682755327,17,2,unlicensed,yes,NULL
1673682787,4d0fc014ec1ca340094f9635ca394c34,PennController,20,0,Experiment,NULL,PennController,20,_Trial_,Start,1673682755328,4,2,long-distance,yes,NULL
1673682787,4d0fc014ec1ca340094f9635ca394c34,PennController,20,0,Experiment,NULL,Text,FlashSentence,Print,NA,1673682755581,4,2,long-distance,yes,NULL
1673682787,4d0fc014ec1ca340094f9635ca394c34,PennController,20,0,Experiment,NULL,Scale,q,Choice,3,1673682756284,4,2,long-distance,yes,NULL
1673682787,4d0fc014ec1ca340094f9635ca394c34,PennController,20,0,Experiment,NULL,PennController,20,_Trial_,End,1673682756285,4,2,long-distance,yes,NULL
# 13. Comments.
1673682787,4d0fc014ec1ca340094f9635ca394c34,PennController,8,0,Filler,NULL,PennController,8,_Trial_,Start,1673682756286,NULL
1673682787,4d0fc014ec1ca340094f9635ca394c34,PennController,8,0,Filler,NULL,Text,FlashSentence,Print,NA,1673682756541,NULL
1673682787,4d0fc014ec1ca340094f9635ca394c34,PennController,8,0,Filler,NULL,Scale,q,Choice,3,1673682758887,NULL
1673682787,4d0fc014ec1ca340094f9635ca394c34,PennController,8,0,Filler,NULL,PennController,8,_Trial_,End,1673682758888,NULL
# 13. Item.
# 14. Group.
# 15. License Type.
# 16. ECM.
# 17. Comments.
1673682787,4d0fc014ec1ca340094f9635ca394c34,PennController,25,0,Experiment,NULL,PennController,25,_Trial_,Start,1673682758889,9,2,licensed,yes,NULL
1673682787,4d0fc014ec1ca340094f9635ca394c34,PennController,25,0,Experiment,NULL,Text,FlashSentence,Print,NA,1673682759142,9,2,licensed,yes,NULL
1673682787,4d0fc014ec1ca340094f9635ca394c34,PennController,25,0,Experiment,NULL,PennController,25,_Trial_,End,1673682761053,9,2,licensed,yes,NULL
1673682787,4d0fc014ec1ca340094f9635ca394c34,PennController,25,0,Experiment,NULL,Scale,q,Choice,4,1673682761053,9,2,licensed,yes,NULL
1673682787,4d0fc014ec1ca340094f9635ca394c34,PennController,23,0,Experiment,NULL,PennController,23,_Trial_,Start,1673682761054,7,2,long-distance,no,NULL
1673682787,4d0fc014ec1ca340094f9635ca394c34,PennController,23,0,Experiment,NULL,Text,FlashSentence,Print,NA,1673682761307,7,2,long-distance,no,NULL
1673682787,4d0fc014ec1ca340094f9635ca394c34,PennController,23,0,Experiment,NULL,Scale,q,Choice,4,1673682762471,7,2,long-distance,no,NULL
1673682787,4d0fc014ec1ca340094f9635ca394c34,PennController,23,0,Experiment,NULL,PennController,23,_Trial_,End,1673682762472,7,2,long-distance,no,NULL
# 13. Comments.
1673682787,4d0fc014ec1ca340094f9635ca394c34,PennController,14,0,Filler,NULL,PennController,14,_Trial_,Start,1673682762474,NULL
1673682787,4d0fc014ec1ca340094f9635ca394c34,PennController,14,0,Filler,NULL,Text,FlashSentence,Print,NA,1673682762727,NULL
1673682787,4d0fc014ec1ca340094f9635ca394c34,PennController,14,0,Filler,NULL,PennController,14,_Trial_,End,1673682765158,NULL
1673682787,4d0fc014ec1ca340094f9635ca394c34,PennController,14,0,Filler,NULL,Scale,q,Choice,2,1673682765158,NULL
# 13. Item.
# 14. Group.
# 15. License Type.
# 16. ECM.
# 17. Comments.
1673682787,4d0fc014ec1ca340094f9635ca394c34,PennController,24,0,Experiment,NULL,PennController,24,_Trial_,Start,1673682765160,8,2,unlicensed,no,NULL
1673682787,4d0fc014ec1ca340094f9635ca394c34,PennController,24,0,Experiment,NULL,Text,FlashSentence,Print,NA,1673682765416,8,2,unlicensed,no,NULL
1673682787,4d0fc014ec1ca340094f9635ca394c34,PennController,24,0,Experiment,NULL,Scale,q,Choice,4,1673682767590,8,2,unlicensed,no,NULL
1673682787,4d0fc014ec1ca340094f9635ca394c34,PennController,24,0,Experiment,NULL,PennController,24,_Trial_,End,1673682767591,8,2,unlicensed,no,NULL
1673682787,4d0fc014ec1ca340094f9635ca394c34,PennController,18,0,Experiment,NULL,PennController,18,_Trial_,Start,1673682767592,2,2,unlicensed,no,NULL
1673682787,4d0fc014ec1ca340094f9635ca394c34,PennController,18,0,Experiment,NULL,Text,FlashSentence,Print,NA,1673682767846,2,2,unlicensed,no,NULL
1673682787,4d0fc014ec1ca340094f9635ca394c34,PennController,18,0,Experiment,NULL,Scale,q,Choice,5,1673682770051,2,2,unlicensed,no,NULL
1673682787,4d0fc014ec1ca340094f9635ca394c34,PennController,18,0,Experiment,NULL,PennController,18,_Trial_,End,1673682770052,2,2,unlicensed,no,NULL
# 13. Comments.
1673682787,4d0fc014ec1ca340094f9635ca394c34,PennController,9,0,Filler,NULL,PennController,9,_Trial_,Start,1673682770053,NULL
1673682787,4d0fc014ec1ca340094f9635ca394c34,PennController,9,0,Filler,NULL,Text,FlashSentence,Print,NA,1673682770305,NULL
1673682787,4d0fc014ec1ca340094f9635ca394c34,PennController,9,0,Filler,NULL,PennController,9,_Trial_,End,1673682771441,NULL
1673682787,4d0fc014ec1ca340094f9635ca394c34,PennController,9,0,Filler,NULL,Scale,q,Choice,4,1673682771441,NULL
# 13. Item.
# 14. Group.
# 15. License Type.
# 16. ECM.
# 17. Comments.
1673682787,4d0fc014ec1ca340094f9635ca394c34,PennController,17,0,Experiment,NULL,PennController,17,_Trial_,Start,1673682771442,1,2,long-distance,no,NULL
1673682787,4d0fc014ec1ca340094f9635ca394c34,PennController,17,0,Experiment,NULL,Text,FlashSentence,Print,NA,1673682771695,1,2,long-distance,no,NULL
1673682787,4d0fc014ec1ca340094f9635ca394c34,PennController,17,0,Experiment,NULL,Scale,q,Choice,2,1673682773372,1,2,long-distance,no,NULL
1673682787,4d0fc014ec1ca340094f9635ca394c34,PennController,17,0,Experiment,NULL,PennController,17,_Trial_,End,1673682773373,1,2,long-distance,no,NULL
1673682787,4d0fc014ec1ca340094f9635ca394c34,PennController,28,0,Experiment,NULL,PennController,28,_Trial_,Start,1673682773374,12,2,licensed,no,NULL
1673682787,4d0fc014ec1ca340094f9635ca394c34,PennController,28,0,Experiment,NULL,Text,FlashSentence,Print,NA,1673682773630,12,2,licensed,no,NULL
1673682787,4d0fc014ec1ca340094f9635ca394c34,PennController,28,0,Experiment,NULL,Scale,q,Choice,1,1673682774839,12,2,licensed,no,NULL
1673682787,4d0fc014ec1ca340094f9635ca394c34,PennController,28,0,Experiment,NULL,PennController,28,_Trial_,End,1673682774840,12,2,licensed,no,NULL
# 13. Comments.
1673682787,4d0fc014ec1ca340094f9635ca394c34,PennController,16,0,Filler,NULL,PennController,16,_Trial_,Start,1673682774841,NULL
1673682787,4d0fc014ec1ca340094f9635ca394c34,PennController,16,0,Filler,NULL,Text,FlashSentence,Print,NA,1673682775096,NULL
1673682787,4d0fc014ec1ca340094f9635ca394c34,PennController,16,0,Filler,NULL,PennController,16,_Trial_,End,1673682775975,NULL
1673682787,4d0fc014ec1ca340094f9635ca394c34,PennController,16,0,Filler,NULL,Scale,q,Choice,4,1673682775975,NULL
# 13. Item.
# 14. Group.
# 15. License Type.
# 16. ECM.
# 17. Comments.
1673682787,4d0fc014ec1ca340094f9635ca394c34,PennController,19,0,Experiment,NULL,PennController,19,_Trial_,Start,1673682775976,3,2,licensed,yes,NULL
1673682787,4d0fc014ec1ca340094f9635ca394c34,PennController,19,0,Experiment,NULL,Text,FlashSentence,Print,NA,1673682776228,3,2,licensed,yes,NULL
1673682787,4d0fc014ec1ca340094f9635ca394c34,PennController,19,0,Experiment,NULL,PennController,19,_Trial_,End,1673682776867,3,2,licensed,yes,NULL
1673682787,4d0fc014ec1ca340094f9635ca394c34,PennController,19,0,Experiment,NULL,Scale,q,Choice,5,1673682776867,3,2,licensed,yes,NULL
1673682787,4d0fc014ec1ca340094f9635ca394c34,PennController,31,0,Experiment,NULL,PennController,31,_Trial_,Start,1673682776868,15,2,licensed,yes,NULL
1673682787,4d0fc014ec1ca340094f9635ca394c34,PennController,31,0,Experiment,NULL,Text,FlashSentence,Print,NA,1673682777120,15,2,licensed,yes,NULL
1673682787,4d0fc014ec1ca340094f9635ca394c34,PennController,31,0,Experiment,NULL,Scale,q,Choice,2,1673682777885,15,2,licensed,yes,NULL
1673682787,4d0fc014ec1ca340094f9635ca394c34,PennController,31,0,Experiment,NULL,PennController,31,_Trial_,End,1673682777886,15,2,licensed,yes,NULL
# 13. Comments.
1673682787,4d0fc014ec1ca340094f9635ca394c34,PennController,12,0,Filler,NULL,PennController,12,_Trial_,Start,1673682777887,NULL
1673682787,4d0fc014ec1ca340094f9635ca394c34,PennController,12,0,Filler,NULL,Text,FlashSentence,Print,NA,1673682778142,NULL
1673682787,4d0fc014ec1ca340094f9635ca394c34,PennController,12,0,Filler,NULL,Scale,q,Choice,3,1673682779006,NULL
1673682787,4d0fc014ec1ca340094f9635ca394c34,PennController,12,0,Filler,NULL,PennController,12,_Trial_,End,1673682779007,NULL
# 13. Item.
# 14. Group.
# 15. License Type.
# 16. ECM.
# 17. Comments.
1673682787,4d0fc014ec1ca340094f9635ca394c34,PennController,22,0,Experiment,NULL,PennController,22,_Trial_,Start,1673682779007,6,2,licensed,no,NULL
1673682787,4d0fc014ec1ca340094f9635ca394c34,PennController,22,0,Experiment,NULL,Text,FlashSentence,Print,NA,1673682779263,6,2,licensed,no,NULL
1673682787,4d0fc014ec1ca340094f9635ca394c34,PennController,22,0,Experiment,NULL,Scale,q,Choice,4,1673682780023,6,2,licensed,no,NULL
1673682787,4d0fc014ec1ca340094f9635ca394c34,PennController,22,0,Experiment,NULL,PennController,22,_Trial_,End,1673682780024,6,2,licensed,no,NULL
1673682787,4d0fc014ec1ca340094f9635ca394c34,PennController,32,0,Experiment,NULL,PennController,32,_Trial_,Start,1673682780025,16,2,long-distance,yes,NULL
1673682787,4d0fc014ec1ca340094f9635ca394c34,PennController,32,0,Experiment,NULL,Text,FlashSentence,Print,NA,1673682780280,16,2,long-distance,yes,NULL
1673682787,4d0fc014ec1ca340094f9635ca394c34,PennController,32,0,Experiment,NULL,PennController,32,_Trial_,End,1673682781240,16,2,long-distance,yes,NULL
1673682787,4d0fc014ec1ca340094f9635ca394c34,PennController,32,0,Experiment,NULL,Scale,q,Choice,5,1673682781240,16,2,long-distance,yes,NULL
# 13. Comments.
1673682787,4d0fc014ec1ca340094f9635ca394c34,PennController,10,0,Filler,NULL,PennController,10,_Trial_,Start,1673682781241,NULL
1673682787,4d0fc014ec1ca340094f9635ca394c34,PennController,10,0,Filler,NULL,Text,FlashSentence,Print,NA,1673682781496,NULL
1673682787,4d0fc014ec1ca340094f9635ca394c34,PennController,10,0,Filler,NULL,PennController,10,_Trial_,End,1673682782401,NULL
1673682787,4d0fc014ec1ca340094f9635ca394c34,PennController,10,0,Filler,NULL,Scale,q,Choice,1,1673682782401,NULL
# 13. Item.
# 14. Group.
# 15. License Type.
# 16. ECM.
# 17. Comments.
1673682787,4d0fc014ec1ca340094f9635ca394c34,PennController,34,0,Experiment,NULL,PennController,34,_Trial_,Start,1673682782402,18,2,unlicensed,no,NULL
1673682787,4d0fc014ec1ca340094f9635ca394c34,PennController,34,0,Experiment,NULL,Text,FlashSentence,Print,NA,1673682782658,18,2,unlicensed,no,NULL
1673682787,4d0fc014ec1ca340094f9635ca394c34,PennController,34,0,Experiment,NULL,PennController,34,_Trial_,End,1673682783190,18,2,unlicensed,no,NULL
1673682787,4d0fc014ec1ca340094f9635ca394c34,PennController,34,0,Experiment,NULL,Scale,q,Choice,2,1673682783190,18,2,unlicensed,no,NULL
1673682787,4d0fc014ec1ca340094f9635ca394c34,PennController,30,0,Experiment,NULL,PennController,30,_Trial_,Start,1673682783191,14,2,unlicensed,no,NULL
1673682787,4d0fc014ec1ca340094f9635ca394c34,PennController,30,0,Experiment,NULL,Text,FlashSentence,Print,NA,1673682783447,14,2,unlicensed,no,NULL
1673682787,4d0fc014ec1ca340094f9635ca394c34,PennController,30,0,Experiment,NULL,PennController,30,_Trial_,End,1673682784373,14,2,unlicensed,no,NULL
1673682787,4d0fc014ec1ca340094f9635ca394c34,PennController,30,0,Experiment,NULL,Scale,q,Choice,3,1673682784373,14,2,unlicensed,no,NULL
# 13. Comments.
1673682787,4d0fc014ec1ca340094f9635ca394c34,PennController,11,0,Filler,NULL,PennController,11,_Trial_,Start,1673682784374,NULL
1673682787,4d0fc014ec1ca340094f9635ca394c34,PennController,11,0,Filler,NULL,Text,FlashSentence,Print,NA,1673682784629,NULL
1673682787,4d0fc014ec1ca340094f9635ca394c34,PennController,11,0,Filler,NULL,Scale,q,Choice,4,1673682785091,NULL
1673682787,4d0fc014ec1ca340094f9635ca394c34,PennController,11,0,Filler,NULL,PennController,11,_Trial_,End,1673682785092,NULL
# 13. Item.
# 14. Group.
# 15. License Type.
# 16. ECM.
# 17. Comments.
1673682787,4d0fc014ec1ca340094f9635ca394c34,PennController,27,0,Experiment,NULL,PennController,27,_Trial_,Start,1673682785093,11,2,unlicensed,yes,NULL
1673682787,4d0fc014ec1ca340094f9635ca394c34,PennController,27,0,Experiment,NULL,Text,FlashSentence,Print,NA,1673682785347,11,2,unlicensed,yes,NULL
1673682787,4d0fc014ec1ca340094f9635ca394c34,PennController,27,0,Experiment,NULL,Scale,q,Choice,5,1673682786072,11,2,unlicensed,yes,NULL
1673682787,4d0fc014ec1ca340094f9635ca394c34,PennController,27,0,Experiment,NULL,PennController,27,_Trial_,End,1673682786073,11,2,unlicensed,yes,NULL
#
# Results on Sat, 14 Jan 2023 10:20:31 GMT
# USER AGENT: Mozilla/5.0 (iPhone; CPU iPhone OS 16_1_2 like Mac OS X) AppleWebKit/605.1.15 (KHTML, like Gecko) Version/16.1 Mobile/15E148 Safari/604.1
# Design number was non-random = 2
#
# Columns below this comment are as follows:
# 1. Results reception time.
# 2. MD5 hash of participant's IP address.
# 3. Controller name.
# 4. Order number of item.
# 5. Inner element number.
# 6. Label.
# 7. Latin Square Group.
# 8. PennElementType.
# 9. PennElementName.
# 10. Parameter.
# 11. Value.
# 12. EventTime.
# 13. Comments.
1673691631,5071d942e29abd835fc80c68a8587d42,PennController,1,0,Consent,NULL,PennController,0,_Trial_,Start,1673691436178,NULL
1673691631,5071d942e29abd835fc80c68a8587d42,PennController,1,0,Consent,NULL,TextInput,input_name,First,,1673691443139,K
1673691631,5071d942e29abd835fc80c68a8587d42,PennController,1,0,Consent,NULL,TextInput,input_name,Final,Kübra Yıldırım,1673691448830,NULL
1673691631,5071d942e29abd835fc80c68a8587d42,PennController,1,0,Consent,NULL,PennController,0,_Trial_,End,1673691448831,NULL
1673691631,5071d942e29abd835fc80c68a8587d42,PennController,2,0,ExpInstructions,NULL,PennController,1,_Trial_,Start,1673691448843,NULL
1673691631,5071d942e29abd835fc80c68a8587d42,PennController,2,0,ExpInstructions,NULL,PennController,1,_Trial_,End,1673691452499,NULL
1673691631,5071d942e29abd835fc80c68a8587d42,PennController,3,0,PracticeInstructions,NULL,PennController,2,_Trial_,Start,1673691452510,NULL
1673691631,5071d942e29abd835fc80c68a8587d42,PennController,3,0,PracticeInstructions,NULL,PennController,2,_Trial_,End,1673691456423,NULL
1673691631,5071d942e29abd835fc80c68a8587d42,PennController,5,0,PracticeTrial,NULL,PennController,6,_Trial_,Start,1673691456436,NULL
1673691631,5071d942e29abd835fc80c68a8587d42,PennController,5,0,PracticeTrial,NULL,Text,FlashSentence,Print,NA,1673691456699,NULL
1673691631,5071d942e29abd835fc80c68a8587d42,PennController,5,0,PracticeTrial,NULL,Scale,q,Choice,1,1673691461913,NULL
1673691631,5071d942e29abd835fc80c68a8587d42,PennController,5,0,PracticeTrial,NULL,PennController,6,_Trial_,End,1673691461919,NULL
1673691631,5071d942e29abd835fc80c68a8587d42,PennController,4,0,PracticeTrial,NULL,PennController,5,_Trial_,Start,1673691461928,NULL
1673691631,5071d942e29abd835fc80c68a8587d42,PennController,4,0,PracticeTrial,NULL,Text,FlashSentence,Print,NA,1673691462187,NULL
1673691631,5071d942e29abd835fc80c68a8587d42,PennController,4,0,PracticeTrial,NULL,Scale,q,Choice,5,1673691466787,NULL
1673691631,5071d942e29abd835fc80c68a8587d42,PennController,4,0,PracticeTrial,NULL,PennController,5,_Trial_,End,1673691466791,NULL
1673691631,5071d942e29abd835fc80c68a8587d42,PennController,6,0,PracticeTrial,NULL,PennController,7,_Trial_,Start,1673691466800,NULL
1673691631,5071d942e29abd835fc80c68a8587d42,PennController,6,0,PracticeTrial,NULL,Text,FlashSentence,Print,NA,1673691467060,NULL
1673691631,5071d942e29abd835fc80c68a8587d42,PennController,6,0,PracticeTrial,NULL,Scale,q,Choice,5,1673691476702,NULL
1673691631,5071d942e29abd835fc80c68a8587d42,PennController,6,0,PracticeTrial,NULL,PennController,7,_Trial_,End,1673691476706,NULL
1673691631,5071d942e29abd835fc80c68a8587d42,PennController,7,0,expstarts,NULL,PennController,3,_Trial_,Start,1673691476715,NULL
1673691631,5071d942e29abd835fc80c68a8587d42,PennController,7,0,expstarts,NULL,PennController,3,_Trial_,End,1673691481722,NULL
# 13. Item.
# 14. Group.
# 15. License Type.
# 16. ECM.
# 17. Comments.
1673691631,5071d942e29abd835fc80c68a8587d42,PennController,21,0,Experiment,NULL,PennController,21,_Trial_,Start,1673691481733,5,3,licensed,no,NULL
1673691631,5071d942e29abd835fc80c68a8587d42,PennController,21,0,Experiment,NULL,Text,FlashSentence,Print,NA,1673691481995,5,3,licensed,no,NULL
1673691631,5071d942e29abd835fc80c68a8587d42,PennController,21,0,Experiment,NULL,Scale,q,Choice,5,1673691486410,5,3,licensed,no,NULL
1673691631,5071d942e29abd835fc80c68a8587d42,PennController,21,0,Experiment,NULL,PennController,21,_Trial_,End,1673691486415,5,3,licensed,no,NULL
1673691631,5071d942e29abd835fc80c68a8587d42,PennController,25,0,Experiment,NULL,PennController,25,_Trial_,Start,1673691486424,9,3,long-distance,yes,NULL
1673691631,5071d942e29abd835fc80c68a8587d42,PennController,25,0,Experiment,NULL,Text,FlashSentence,Print,NA,1673691486685,9,3,long-distance,yes,NULL
1673691631,5071d942e29abd835fc80c68a8587d42,PennController,25,0,Experiment,NULL,Scale,q,Choice,5,1673691501135,9,3,long-distance,yes,NULL
1673691631,5071d942e29abd835fc80c68a8587d42,PennController,25,0,Experiment,NULL,PennController,25,_Trial_,End,1673691501139,9,3,long-distance,yes,NULL
# 13. Comments.
1673691631,5071d942e29abd835fc80c68a8587d42,PennController,13,0,Filler,NULL,PennController,13,_Trial_,Start,1673691501148,NULL
1673691631,5071d942e29abd835fc80c68a8587d42,PennController,13,0,Filler,NULL,Text,FlashSentence,Print,NA,1673691501408,NULL
1673691631,5071d942e29abd835fc80c68a8587d42,PennController,13,0,Filler,NULL,Scale,q,Choice,5,1673691505510,NULL
1673691631,5071d942e29abd835fc80c68a8587d42,PennController,13,0,Filler,NULL,PennController,13,_Trial_,End,1673691505513,NULL
# 13. Item.
# 14. Group.
# 15. License Type.
# 16. ECM.
# 17. Comments.
1673691631,5071d942e29abd835fc80c68a8587d42,PennController,34,0,Experiment,NULL,PennController,34,_Trial_,Start,1673691505522,18,3,long-distance,no,NULL
1673691631,5071d942e29abd835fc80c68a8587d42,PennController,34,0,Experiment,NULL,Text,FlashSentence,Print,NA,1673691505779,18,3,long-distance,no,NULL
1673691631,5071d942e29abd835fc80c68a8587d42,PennController,34,0,Experiment,NULL,Scale,q,Choice,5,1673691509804,18,3,long-distance,no,NULL
1673691631,5071d942e29abd835fc80c68a8587d42,PennController,34,0,Experiment,NULL,PennController,34,_Trial_,End,1673691509807,18,3,long-distance,no,NULL
1673691631,5071d942e29abd835fc80c68a8587d42,PennController,28,0,Experiment,NULL,PennController,28,_Trial_,Start,1673691509816,12,3,long-distance,no,NULL
1673691631,5071d942e29abd835fc80c68a8587d42,PennController,28,0,Experiment,NULL,Text,FlashSentence,Print,NA,1673691510073,12,3,long-distance,no,NULL
1673691631,5071d942e29abd835fc80c68a8587d42,PennController,28,0,Experiment,NULL,Scale,q,Choice,5,1673691513011,12,3,long-distance,no,NULL
1673691631,5071d942e29abd835fc80c68a8587d42,PennController,28,0,Experiment,NULL,PennController,28,_Trial_,End,1673691513014,12,3,long-distance,no,NULL
# 13. Comments.
1673691631,5071d942e29abd835fc80c68a8587d42,PennController,12,0,Filler,NULL,PennController,12,_Trial_,Start,1673691513023,NULL
1673691631,5071d942e29abd835fc80c68a8587d42,PennController,12,0,Filler,NULL,Text,FlashSentence,Print,NA,1673691513281,NULL
1673691631,5071d942e29abd835fc80c68a8587d42,PennController,12,0,Filler,NULL,Scale,q,Choice,4,1673691523992,NULL
1673691631,5071d942e29abd835fc80c68a8587d42,PennController,12,0,Filler,NULL,PennController,12,_Trial_,End,1673691523995,NULL
# 13. Item.
# 14. Group.
# 15. License Type.
# 16. ECM.
# 17. Comments.
1673691631,5071d942e29abd835fc80c68a8587d42,PennController,18,0,Experiment,NULL,PennController,18,_Trial_,Start,1673691524003,2,3,licensed,yes,NULL
1673691631,5071d942e29abd835fc80c68a8587d42,PennController,18,0,Experiment,NULL,Text,FlashSentence,Print,NA,1673691524261,2,3,licensed,yes,NULL
1673691631,5071d942e29abd835fc80c68a8587d42,PennController,18,0,Experiment,NULL,Scale,q,Choice,5,1673691528775,2,3,licensed,yes,NULL
1673691631,5071d942e29abd835fc80c68a8587d42,PennController,18,0,Experiment,NULL,PennController,18,_Trial_,End,1673691528778,2,3,licensed,yes,NULL
1673691631,5071d942e29abd835fc80c68a8587d42,PennController,26,0,Experiment,NULL,PennController,26,_Trial_,Start,1673691528786,10,3,unlicensed,yes,NULL
1673691631,5071d942e29abd835fc80c68a8587d42,PennController,26,0,Experiment,NULL,Text,FlashSentence,Print,NA,1673691529044,10,3,unlicensed,yes,NULL
1673691631,5071d942e29abd835fc80c68a8587d42,PennController,26,0,Experiment,NULL,Scale,q,Choice,1,1673691531575,10,3,unlicensed,yes,NULL
1673691631,5071d942e29abd835fc80c68a8587d42,PennController,26,0,Experiment,NULL,PennController,26,_Trial_,End,1673691531578,10,3,unlicensed,yes,NULL
# 13. Comments.
1673691631,5071d942e29abd835fc80c68a8587d42,PennController,9,0,Filler,NULL,PennController,9,_Trial_,Start,1673691531587,NULL
1673691631,5071d942e29abd835fc80c68a8587d42,PennController,9,0,Filler,NULL,Text,FlashSentence,Print,NA,1673691531844,NULL
1673691631,5071d942e29abd835fc80c68a8587d42,PennController,9,0,Filler,NULL,Scale,q,Choice,1,1673691536634,NULL
1673691631,5071d942e29abd835fc80c68a8587d42,PennController,9,0,Filler,NULL,PennController,9,_Trial_,End,1673691536637,NULL
# 13. Item.
# 14. Group.
# 15. License Type.
# 16. ECM.
# 17. Comments.
1673691631,5071d942e29abd835fc80c68a8587d42,PennController,32,0,Experiment,NULL,PennController,32,_Trial_,Start,1673691536645,16,3,unlicensed,yes,NULL
1673691631,5071d942e29abd835fc80c68a8587d42,PennController,32,0,Experiment,NULL,Text,FlashSentence,Print,NA,1673691536902,16,3,unlicensed,yes,NULL
1673691631,5071d942e29abd835fc80c68a8587d42,PennController,32,0,Experiment,NULL,Scale,q,Choice,1,1673691539474,16,3,unlicensed,yes,NULL
1673691631,5071d942e29abd835fc80c68a8587d42,PennController,32,0,Experiment,NULL,PennController,32,_Trial_,End,1673691539477,16,3,unlicensed,yes,NULL
1673691631,5071d942e29abd835fc80c68a8587d42,PennController,29,0,Experiment,NULL,PennController,29,_Trial_,Start,1673691539485,13,3,unlicensed,no,NULL
1673691631,5071d942e29abd835fc80c68a8587d42,PennController,29,0,Experiment,NULL,Text,FlashSentence,Print,NA,1673691539743,13,3,unlicensed,no,NULL
1673691631,5071d942e29abd835fc80c68a8587d42,PennController,29,0,Experiment,NULL,Scale,q,Choice,1,1673691545416,13,3,unlicensed,no,NULL
1673691631,5071d942e29abd835fc80c68a8587d42,PennController,29,0,Experiment,NULL,PennController,29,_Trial_,End,1673691545419,13,3,unlicensed,no,NULL
# 13. Comments.
1673691631,5071d942e29abd835fc80c68a8587d42,PennController,10,0,Filler,NULL,PennController,10,_Trial_,Start,1673691545428,NULL
1673691631,5071d942e29abd835fc80c68a8587d42,PennController,10,0,Filler,NULL,Text,FlashSentence,Print,NA,1673691545686,NULL
1673691631,5071d942e29abd835fc80c68a8587d42,PennController,10,0,Filler,NULL,Scale,q,Choice,5,1673691548541,NULL
1673691631,5071d942e29abd835fc80c68a8587d42,PennController,10,0,Filler,NULL,PennController,10,_Trial_,End,1673691548544,NULL
# 13. Item.
# 14. Group.
# 15. License Type.
# 16. ECM.
# 17. Comments.
1673691631,5071d942e29abd835fc80c68a8587d42,PennController,19,0,Experiment,NULL,PennController,19,_Trial_,Start,1673691548552,3,3,long-distance,yes,NULL
1673691631,5071d942e29abd835fc80c68a8587d42,PennController,19,0,Experiment,NULL,Text,FlashSentence,Print,NA,1673691548809,3,3,long-distance,yes,NULL
1673691631,5071d942e29abd835fc80c68a8587d42,PennController,19,0,Experiment,NULL,Scale,q,Choice,4,1673691554824,3,3,long-distance,yes,NULL
1673691631,5071d942e29abd835fc80c68a8587d42,PennController,19,0,Experiment,NULL,PennController,19,_Trial_,End,1673691554827,3,3,long-distance,yes,NULL
1673691631,5071d942e29abd835fc80c68a8587d42,PennController,31,0,Experiment,NULL,PennController,31,_Trial_,Start,1673691554835,15,3,long-distance,yes,NULL
1673691631,5071d942e29abd835fc80c68a8587d42,PennController,31,0,Experiment,NULL,Text,FlashSentence,Print,NA,1673691555092,15,3,long-distance,yes,NULL
1673691631,5071d942e29abd835fc80c68a8587d42,PennController,31,0,Experiment,NULL,Scale,q,Choice,4,1673691562992,15,3,long-distance,yes,NULL
1673691631,5071d942e29abd835fc80c68a8587d42,PennController,31,0,Experiment,NULL,PennController,31,_Trial_,End,1673691562997,15,3,long-distance,yes,NULL
# 13. Comments.
1673691631,5071d942e29abd835fc80c68a8587d42,PennController,11,0,Filler,NULL,PennController,11,_Trial_,Start,1673691563004,NULL
1673691631,5071d942e29abd835fc80c68a8587d42,PennController,11,0,Filler,NULL,Text,FlashSentence,Print,NA,1673691563262,NULL
1673691631,5071d942e29abd835fc80c68a8587d42,PennController,11,0,Filler,NULL,Scale,q,Choice,1,1673691566182,NULL
1673691631,5071d942e29abd835fc80c68a8587d42,PennController,11,0,Filler,NULL,PennController,11,_Trial_,End,1673691566185,NULL
# 13. Item.
# 14. Group.
# 15. License Type.
# 16. ECM.
# 17. Comments.
1673691631,5071d942e29abd835fc80c68a8587d42,PennController,17,0,Experiment,NULL,PennController,17,_Trial_,Start,1673691566192,1,3,unlicensed,no,NULL
1673691631,5071d942e29abd835fc80c68a8587d42,PennController,17,0,Experiment,NULL,Text,FlashSentence,Print,NA,1673691566449,1,3,unlicensed,no,NULL
1673691631,5071d942e29abd835fc80c68a8587d42,PennController,17,0,Experiment,NULL,Scale,q,Choice,1,1673691570390,1,3,unlicensed,no,NULL
1673691631,5071d942e29abd835fc80c68a8587d42,PennController,17,0,Experiment,NULL,PennController,17,_Trial_,End,1673691570393,1,3,unlicensed,no,NULL
1673691631,5071d942e29abd835fc80c68a8587d42,PennController,27,0,Experiment,NULL,PennController,27,_Trial_,Start,1673691570400,11,3,licensed,no,NULL
1673691631,5071d942e29abd835fc80c68a8587d42,PennController,27,0,Experiment,NULL,Text,FlashSentence,Print,NA,1673691570658,11,3,licensed,no,NULL
1673691631,5071d942e29abd835fc80c68a8587d42,PennController,27,0,Experiment,NULL,Scale,q,Choice,5,1673691580256,11,3,licensed,no,NULL
1673691631,5071d942e29abd835fc80c68a8587d42,PennController,27,0,Experiment,NULL,PennController,27,_Trial_,End,1673691580259,11,3,licensed,no,NULL
# 13. Comments.
1673691631,5071d942e29abd835fc80c68a8587d42,PennController,15,0,Filler,NULL,PennController,15,_Trial_,Start,1673691580266,NULL
1673691631,5071d942e29abd835fc80c68a8587d42,PennController,15,0,Filler,NULL,Text,FlashSentence,Print,NA,1673691580524,NULL
1673691631,5071d942e29abd835fc80c68a8587d42,PennController,15,0,Filler,NULL,Scale,q,Choice,1,1673691583544,NULL
1673691631,5071d942e29abd835fc80c68a8587d42,PennController,15,0,Filler,NULL,PennController,15,_Trial_,End,1673691583545,NULL
# 13. Item.
# 14. Group.
# 15. License Type.
# 16. ECM.
# 17. Comments.
1673691631,5071d942e29abd835fc80c68a8587d42,PennController,23,0,Experiment,NULL,PennController,23,_Trial_,Start,1673691583548,7,3,unlicensed,no,NULL
1673691631,5071d942e29abd835fc80c68a8587d42,PennController,23,0,Experiment,NULL,Text,FlashSentence,Print,NA,1673691583806,7,3,unlicensed,no,NULL
1673691631,5071d942e29abd835fc80c68a8587d42,PennController,23,0,Experiment,NULL,Scale,q,Choice,1,1673691586523,7,3,unlicensed,no,NULL
1673691631,5071d942e29abd835fc80c68a8587d42,PennController,23,0,Experiment,NULL,PennController,23,_Trial_,End,1673691586525,7,3,unlicensed,no,NULL
1673691631,5071d942e29abd835fc80c68a8587d42,PennController,33,0,Experiment,NULL,PennController,33,_Trial_,Start,1673691586532,17,3,licensed,no,NULL
1673691631,5071d942e29abd835fc80c68a8587d42,PennController,33,0,Experiment,NULL,Text,FlashSentence,Print,NA,1673691586790,17,3,licensed,no,NULL
1673691631,5071d942e29abd835fc80c68a8587d42,PennController,33,0,Experiment,NULL,Scale,q,Choice,5,1673691596273,17,3,licensed,no,NULL
1673691631,5071d942e29abd835fc80c68a8587d42,PennController,33,0,Experiment,NULL,PennController,33,_Trial_,End,1673691596275,17,3,licensed,no,NULL
# 13. Comments.
1673691631,5071d942e29abd835fc80c68a8587d42,PennController,14,0,Filler,NULL,PennController,14,_Trial_,Start,1673691596282,NULL
1673691631,5071d942e29abd835fc80c68a8587d42,PennController,14,0,Filler,NULL,Text,FlashSentence,Print,NA,1673691596540,NULL
1673691631,5071d942e29abd835fc80c68a8587d42,PennController,14,0,Filler,NULL,Scale,q,Choice,1,1673691598958,NULL
1673691631,5071d942e29abd835fc80c68a8587d42,PennController,14,0,Filler,NULL,PennController,14,_Trial_,End,1673691598960,NULL
# 13. Item.
# 14. Group.
# 15. License Type.
# 16. ECM.
# 17. Comments.
1673691631,5071d942e29abd835fc80c68a8587d42,PennController,22,0,Experiment,NULL,PennController,22,_Trial_,Start,1673691598968,6,3,long-distance,no,NULL
1673691631,5071d942e29abd835fc80c68a8587d42,PennController,22,0,Experiment,NULL,Text,FlashSentence,Print,NA,1673691599225,6,3,long-distance,no,NULL
1673691631,5071d942e29abd835fc80c68a8587d42,PennController,22,0,Experiment,NULL,Scale,q,Choice,4,1673691607805,6,3,long-distance,no,NULL
1673691631,5071d942e29abd835fc80c68a8587d42,PennController,22,0,Experiment,NULL,PennController,22,_Trial_,End,1673691607809,6,3,long-distance,no,NULL
1673691631,5071d942e29abd835fc80c68a8587d42,PennController,24,0,Experiment,NULL,PennController,24,_Trial_,Start,1673691607815,8,3,licensed,yes,NULL
1673691631,5071d942e29abd835fc80c68a8587d42,PennController,24,0,Experiment,NULL,Text,FlashSentence,Print,NA,1673691608073,8,3,licensed,yes,NULL
1673691631,5071d942e29abd835fc80c68a8587d42,PennController,24,0,Experiment,NULL,Scale,q,Choice,5,1673691613104,8,3,licensed,yes,NULL
1673691631,5071d942e29abd835fc80c68a8587d42,PennController,24,0,Experiment,NULL,PennController,24,_Trial_,End,1673691613107,8,3,licensed,yes,NULL
# 13. Comments.
1673691631,5071d942e29abd835fc80c68a8587d42,PennController,16,0,Filler,NULL,PennController,16,_Trial_,Start,1673691613114,NULL
1673691631,5071d942e29abd835fc80c68a8587d42,PennController,16,0,Filler,NULL,Text,FlashSentence,Print,NA,1673691613371,NULL
1673691631,5071d942e29abd835fc80c68a8587d42,PennController,16,0,Filler,NULL,Scale,q,Choice,5,1673691616581,NULL
1673691631,5071d942e29abd835fc80c68a8587d42,PennController,16,0,Filler,NULL,PennController,16,_Trial_,End,1673691616584,NULL
# 13. Item.
# 14. Group.
# 15. License Type.
# 16. ECM.
# 17. Comments.
1673691631,5071d942e29abd835fc80c68a8587d42,PennController,30,0,Experiment,NULL,PennController,30,_Trial_,Start,1673691616591,14,3,licensed,yes,NULL
1673691631,5071d942e29abd835fc80c68a8587d42,PennController,30,0,Experiment,NULL,Text,FlashSentence,Print,NA,1673691616848,14,3,licensed,yes,NULL
1673691631,5071d942e29abd835fc80c68a8587d42,PennController,30,0,Experiment,NULL,Scale,q,Choice,5,1673691620604,14,3,licensed,yes,NULL
1673691631,5071d942e29abd835fc80c68a8587d42,PennController,30,0,Experiment,NULL,PennController,30,_Trial_,End,1673691620607,14,3,licensed,yes,NULL
1673691631,5071d942e29abd835fc80c68a8587d42,PennController,20,0,Experiment,NULL,PennController,20,_Trial_,Start,1673691620614,4,3,unlicensed,yes,NULL
1673691631,5071d942e29abd835fc80c68a8587d42,PennController,20,0,Experiment,NULL,Text,FlashSentence,Print,NA,1673691620870,4,3,unlicensed,yes,NULL
1673691631,5071d942e29abd835fc80c68a8587d42,PennController,20,0,Experiment,NULL,Scale,q,Choice,1,1673691626163,4,3,unlicensed,yes,NULL
1673691631,5071d942e29abd835fc80c68a8587d42,PennController,20,0,Experiment,NULL,PennController,20,_Trial_,End,1673691626166,4,3,unlicensed,yes,NULL
# 13. Comments.
1673691631,5071d942e29abd835fc80c68a8587d42,PennController,8,0,Filler,NULL,PennController,8,_Trial_,Start,1673691626173,NULL
1673691631,5071d942e29abd835fc80c68a8587d42,PennController,8,0,Filler,NULL,Text,FlashSentence,Print,NA,1673691626431,NULL
1673691631,5071d942e29abd835fc80c68a8587d42,PennController,8,0,Filler,NULL,Scale,q,Choice,5,1673691631002,NULL
1673691631,5071d942e29abd835fc80c68a8587d42,PennController,8,0,Filler,NULL,PennController,8,_Trial_,End,1673691631006,NULL
#
# Results on Sat, 14 Jan 2023 15:47:09 GMT
# USER AGENT: Mozilla/5.0 (iPhone; CPU iPhone OS 15_4_1 like Mac OS X) AppleWebKit/605.1.15 (KHTML, like Gecko) Version/15.4 Mobile/15E148 Safari/604.1
# Design number was non-random = 3
#
# Columns below this comment are as follows:
# 1. Results reception time.
# 2. MD5 hash of participant's IP address.
# 3. Controller name.
# 4. Order number of item.
# 5. Inner element number.
# 6. Label.
# 7. Latin Square Group.
# 8. PennElementType.
# 9. PennElementName.
# 10. Parameter.
# 11. Value.
# 12. EventTime.
# 13. Comments.
1673711229,540e00b3724ec6403f43791ac18904b1,PennController,1,0,Consent,NULL,PennController,0,_Trial_,Start,1673710893879,NULL
1673711229,540e00b3724ec6403f43791ac18904b1,PennController,1,0,Consent,NULL,TextInput,input_name,First,,1673710918305,T
1673711229,540e00b3724ec6403f43791ac18904b1,PennController,1,0,Consent,NULL,TextInput,input_name,Final,Tuğba Yıldırım,1673710925837,NULL
1673711229,540e00b3724ec6403f43791ac18904b1,PennController,1,0,Consent,NULL,PennController,0,_Trial_,End,1673710925838,NULL
1673711229,540e00b3724ec6403f43791ac18904b1,PennController,2,0,ExpInstructions,NULL,PennController,1,_Trial_,Start,1673710925848,NULL
1673711229,540e00b3724ec6403f43791ac18904b1,PennController,2,0,ExpInstructions,NULL,PennController,1,_Trial_,End,1673710947935,NULL
1673711229,540e00b3724ec6403f43791ac18904b1,PennController,3,0,PracticeInstructions,NULL,PennController,2,_Trial_,Start,1673710947947,NULL
1673711229,540e00b3724ec6403f43791ac18904b1,PennController,3,0,PracticeInstructions,NULL,PennController,2,_Trial_,End,1673710954411,NULL
1673711229,540e00b3724ec6403f43791ac18904b1,PennController,6,0,PracticeTrial,NULL,PennController,7,_Trial_,Start,1673710954427,NULL
1673711229,540e00b3724ec6403f43791ac18904b1,PennController,6,0,PracticeTrial,NULL,Text,FlashSentence,Print,NA,1673710954698,NULL
1673711229,540e00b3724ec6403f43791ac18904b1,PennController,6,0,PracticeTrial,NULL,Scale,q,Choice,5,1673710995680,NULL
1673711229,540e00b3724ec6403f43791ac18904b1,PennController,6,0,PracticeTrial,NULL,PennController,7,_Trial_,End,1673710995685,NULL
1673711229,540e00b3724ec6403f43791ac18904b1,PennController,5,0,PracticeTrial,NULL,PennController,6,_Trial_,Start,1673710995696,NULL
1673711229,540e00b3724ec6403f43791ac18904b1,PennController,5,0,PracticeTrial,NULL,Text,FlashSentence,Print,NA,1673710995960,NULL
1673711229,540e00b3724ec6403f43791ac18904b1,PennController,5,0,PracticeTrial,NULL,Scale,q,Choice,1,1673711007689,NULL
1673711229,540e00b3724ec6403f43791ac18904b1,PennController,5,0,PracticeTrial,NULL,PennController,6,_Trial_,End,1673711007696,NULL
1673711229,540e00b3724ec6403f43791ac18904b1,PennController,4,0,PracticeTrial,NULL,PennController,5,_Trial_,Start,1673711007705,NULL
1673711229,540e00b3724ec6403f43791ac18904b1,PennController,4,0,PracticeTrial,NULL,Text,FlashSentence,Print,NA,1673711007968,NULL
1673711229,540e00b3724ec6403f43791ac18904b1,PennController,4,0,PracticeTrial,NULL,Scale,q,Choice,5,1673711014297,NULL
1673711229,540e00b3724ec6403f43791ac18904b1,PennController,4,0,PracticeTrial,NULL,PennController,5,_Trial_,End,1673711014301,NULL
1673711229,540e00b3724ec6403f43791ac18904b1,PennController,7,0,expstarts,NULL,PennController,3,_Trial_,Start,1673711014311,NULL
1673711229,540e00b3724ec6403f43791ac18904b1,PennController,7,0,expstarts,NULL,PennController,3,_Trial_,End,1673711019320,NULL
# 13. Item.
# 14. Group.
# 15. License Type.
# 16. ECM.
# 17. Comments.
1673711229,540e00b3724ec6403f43791ac18904b1,PennController,20,0,Experiment,NULL,PennController,20,_Trial_,Start,1673711019333,4,4,licensed,no,NULL
1673711229,540e00b3724ec6403f43791ac18904b1,PennController,20,0,Experiment,NULL,Text,FlashSentence,Print,NA,1673711019598,4,4,licensed,no,NULL
1673711229,540e00b3724ec6403f43791ac18904b1,PennController,20,0,Experiment,NULL,Scale,q,Choice,4,1673711028911,4,4,licensed,no,NULL
1673711229,540e00b3724ec6403f43791ac18904b1,PennController,20,0,Experiment,NULL,PennController,20,_Trial_,End,1673711028917,4,4,licensed,no,NULL
1673711229,540e00b3724ec6403f43791ac18904b1,PennController,27,0,Experiment,NULL,PennController,27,_Trial_,Start,1673711028927,11,4,long-distance,no,NULL
1673711229,540e00b3724ec6403f43791ac18904b1,PennController,27,0,Experiment,NULL,Text,FlashSentence,Print,NA,1673711029191,11,4,long-distance,no,NULL
1673711229,540e00b3724ec6403f43791ac18904b1,PennController,27,0,Experiment,NULL,Scale,q,Choice,5,1673711039303,11,4,long-distance,no,NULL
1673711229,540e00b3724ec6403f43791ac18904b1,PennController,27,0,Experiment,NULL,PennController,27,_Trial_,End,1673711039308,11,4,long-distance,no,NULL
# 13. Comments.
1673711229,540e00b3724ec6403f43791ac18904b1,PennController,14,0,Filler,NULL,PennController,14,_Trial_,Start,1673711039318,NULL
1673711229,540e00b3724ec6403f43791ac18904b1,PennController,14,0,Filler,NULL,Text,FlashSentence,Print,NA,1673711039582,NULL
1673711229,540e00b3724ec6403f43791ac18904b1,PennController,14,0,Filler,NULL,Scale,q,Choice,1,1673711046972,NULL
1673711229,540e00b3724ec6403f43791ac18904b1,PennController,14,0,Filler,NULL,PennController,14,_Trial_,End,1673711046975,NULL
# 13. Item.
# 14. Group.
# 15. License Type.
# 16. ECM.
# 17. Comments.
1673711229,540e00b3724ec6403f43791ac18904b1,PennController,18,0,Experiment,NULL,PennController,18,_Trial_,Start,1673711046985,2,4,long-distance,yes,NULL
1673711229,540e00b3724ec6403f43791ac18904b1,PennController,18,0,Experiment,NULL,Text,FlashSentence,Print,NA,1673711047247,2,4,long-distance,yes,NULL
1673711229,540e00b3724ec6403f43791ac18904b1,PennController,18,0,Experiment,NULL,Scale,q,Choice,3,1673711058744,2,4,long-distance,yes,NULL
1673711229,540e00b3724ec6403f43791ac18904b1,PennController,18,0,Experiment,NULL,PennController,18,_Trial_,End,1673711058749,2,4,long-distance,yes,NULL
1673711229,540e00b3724ec6403f43791ac18904b1,PennController,28,0,Experiment,NULL,PennController,28,_Trial_,Start,1673711058757,12,4,unlicensed,no,NULL
1673711229,540e00b3724ec6403f43791ac18904b1,PennController,28,0,Experiment,NULL,Text,FlashSentence,Print,NA,1673711059019,12,4,unlicensed,no,NULL
1673711229,540e00b3724ec6403f43791ac18904b1,PennController,28,0,Experiment,NULL,Scale,q,Choice,1,1673711063318,12,4,unlicensed,no,NULL
1673711229,540e00b3724ec6403f43791ac18904b1,PennController,28,0,Experiment,NULL,PennController,28,_Trial_,End,1673711063323,12,4,unlicensed,no,NULL
# 13. Comments.
1673711229,540e00b3724ec6403f43791ac18904b1,PennController,13,0,Filler,NULL,PennController,13,_Trial_,Start,1673711063333,NULL
1673711229,540e00b3724ec6403f43791ac18904b1,PennController,13,0,Filler,NULL,Text,FlashSentence,Print,NA,1673711063594,NULL
1673711229,540e00b3724ec6403f43791ac18904b1,PennController,13,0,Filler,NULL,Scale,q,Choice,5,1673711078500,NULL
1673711229,540e00b3724ec6403f43791ac18904b1,PennController,13,0,Filler,NULL,PennController,13,_Trial_,End,1673711078504,NULL
# 13. Item.
# 14. Group.
# 15. License Type.
# 16. ECM.
# 17. Comments.
1673711229,540e00b3724ec6403f43791ac18904b1,PennController,29,0,Experiment,NULL,PennController,29,_Trial_,Start,1673711078513,13,4,licensed,yes,NULL
1673711229,540e00b3724ec6403f43791ac18904b1,PennController,29,0,Experiment,NULL,Text,FlashSentence,Print,NA,1673711078771,13,4,licensed,yes,NULL
1673711229,540e00b3724ec6403f43791ac18904b1,PennController,29,0,Experiment,NULL,Scale,q,Choice,5,1673711082294,13,4,licensed,yes,NULL
1673711229,540e00b3724ec6403f43791ac18904b1,PennController,29,0,Experiment,NULL,PennController,29,_Trial_,End,1673711082299,13,4,licensed,yes,NULL
1673711229,540e00b3724ec6403f43791ac18904b1,PennController,31,0,Experiment,NULL,PennController,31,_Trial_,Start,1673711082308,15,4,unlicensed,yes,NULL
1673711229,540e00b3724ec6403f43791ac18904b1,PennController,31,0,Experiment,NULL,Text,FlashSentence,Print,NA,1673711082569,15,4,unlicensed,yes,NULL
1673711229,540e00b3724ec6403f43791ac18904b1,PennController,31,0,Experiment,NULL,Scale,q,Choice,1,1673711097109,15,4,unlicensed,yes,NULL
1673711229,540e00b3724ec6403f43791ac18904b1,PennController,31,0,Experiment,NULL,PennController,31,_Trial_,End,1673711097114,15,4,unlicensed,yes,NULL
# 13. Comments.
1673711229,540e00b3724ec6403f43791ac18904b1,PennController,15,0,Filler,NULL,PennController,15,_Trial_,Start,1673711097123,NULL
1673711229,540e00b3724ec6403f43791ac18904b1,PennController,15,0,Filler,NULL,Text,FlashSentence,Print,NA,1673711097384,NULL
1673711229,540e00b3724ec6403f43791ac18904b1,PennController,15,0,Filler,NULL,Scale,q,Choice,1,1673711102709,NULL
1673711229,540e00b3724ec6403f43791ac18904b1,PennController,15,0,Filler,NULL,PennController,15,_Trial_,End,1673711102715,NULL
# 13. Item.
# 14. Group.
# 15. License Type.
# 16. ECM.
# 17. Comments.
1673711229,540e00b3724ec6403f43791ac18904b1,PennController,32,0,Experiment,NULL,PennController,32,_Trial_,Start,1673711102723,16,4,licensed,no,NULL
1673711229,540e00b3724ec6403f43791ac18904b1,PennController,32,0,Experiment,NULL,Text,FlashSentence,Print,NA,1673711102985,16,4,licensed,no,NULL
1673711229,540e00b3724ec6403f43791ac18904b1,PennController,32,0,Experiment,NULL,Scale,q,Choice,5,1673711109160,16,4,licensed,no,NULL
1673711229,540e00b3724ec6403f43791ac18904b1,PennController,32,0,Experiment,NULL,PennController,32,_Trial_,End,1673711109164,16,4,licensed,no,NULL
1673711229,540e00b3724ec6403f43791ac18904b1,PennController,17,0,Experiment,NULL,PennController,17,_Trial_,Start,1673711109172,1,4,licensed,yes,NULL
1673711229,540e00b3724ec6403f43791ac18904b1,PennController,17,0,Experiment,NULL,Text,FlashSentence,Print,NA,1673711109432,1,4,licensed,yes,NULL
1673711229,540e00b3724ec6403f43791ac18904b1,PennController,17,0,Experiment,NULL,Scale,q,Choice,5,1673711114661,1,4,licensed,yes,NULL
1673711229,540e00b3724ec6403f43791ac18904b1,PennController,17,0,Experiment,NULL,PennController,17,_Trial_,End,1673711114665,1,4,licensed,yes,NULL
# 13. Comments.
1673711229,540e00b3724ec6403f43791ac18904b1,PennController,8,0,Filler,NULL,PennController,8,_Trial_,Start,1673711114672,NULL
1673711229,540e00b3724ec6403f43791ac18904b1,PennController,8,0,Filler,NULL,Text,FlashSentence,Print,NA,1673711114937,NULL
1673711229,540e00b3724ec6403f43791ac18904b1,PennController,8,0,Filler,NULL,Scale,q,Choice,5,1673711119804,NULL
1673711229,540e00b3724ec6403f43791ac18904b1,PennController,8,0,Filler,NULL,PennController,8,_Trial_,End,1673711119806,NULL
# 13. Item.
# 14. Group.
# 15. License Type.
# 16. ECM.
# 17. Comments.
1673711229,540e00b3724ec6403f43791ac18904b1,PennController,19,0,Experiment,NULL,PennController,19,_Trial_,Start,1673711119810,3,4,unlicensed,yes,NULL
1673711229,540e00b3724ec6403f43791ac18904b1,PennController,19,0,Experiment,NULL,Text,FlashSentence,Print,NA,1673711120069,3,4,unlicensed,yes,NULL
1673711229,540e00b3724ec6403f43791ac18904b1,PennController,19,0,Experiment,NULL,Scale,q,Choice,1,1673711124374,3,4,unlicensed,yes,NULL
1673711229,540e00b3724ec6403f43791ac18904b1,PennController,19,0,Experiment,NULL,PennController,19,_Trial_,End,1673711124378,3,4,unlicensed,yes,NULL
1673711229,540e00b3724ec6403f43791ac18904b1,PennController,26,0,Experiment,NULL,PennController,26,_Trial_,Start,1673711124385,10,4,licensed,no,NULL
1673711229,540e00b3724ec6403f43791ac18904b1,PennController,26,0,Experiment,NULL,Text,FlashSentence,Print,NA,1673711124646,10,4,licensed,no,NULL
1673711229,540e00b3724ec6403f43791ac18904b1,PennController,26,0,Experiment,NULL,Scale,q,Choice,5,1673711128006,10,4,licensed,no,NULL
1673711229,540e00b3724ec6403f43791ac18904b1,PennController,26,0,Experiment,NULL,PennController,26,_Trial_,End,1673711128010,10,4,licensed,no,NULL
# 13. Comments.
1673711229,540e00b3724ec6403f43791ac18904b1,PennController,12,0,Filler,NULL,PennController,12,_Trial_,Start,1673711128017,NULL
1673711229,540e00b3724ec6403f43791ac18904b1,PennController,12,0,Filler,NULL,Text,FlashSentence,Print,NA,1673711128278,NULL
1673711229,540e00b3724ec6403f43791ac18904b1,PennController,12,0,Filler,NULL,Scale,q,Choice,5,1673711141400,NULL
1673711229,540e00b3724ec6403f43791ac18904b1,PennController,12,0,Filler,NULL,PennController,12,_Trial_,End,1673711141404,NULL
# 13. Item.
# 14. Group.
# 15. License Type.
# 16. ECM.
# 17. Comments.
1673711229,540e00b3724ec6403f43791ac18904b1,PennController,25,0,Experiment,NULL,PennController,25,_Trial_,Start,1673711141411,9,4,unlicensed,yes,NULL
1673711229,540e00b3724ec6403f43791ac18904b1,PennController,25,0,Experiment,NULL,Text,FlashSentence,Print,NA,1673711141671,9,4,unlicensed,yes,NULL
1673711229,540e00b3724ec6403f43791ac18904b1,PennController,25,0,Experiment,NULL,Scale,q,Choice,1,1673711147113,9,4,unlicensed,yes,NULL
1673711229,540e00b3724ec6403f43791ac18904b1,PennController,25,0,Experiment,NULL,PennController,25,_Trial_,End,1673711147117,9,4,unlicensed,yes,NULL
1673711229,540e00b3724ec6403f43791ac18904b1,PennController,30,0,Experiment,NULL,PennController,30,_Trial_,Start,1673711147124,14,4,long-distance,yes,NULL
1673711229,540e00b3724ec6403f43791ac18904b1,PennController,30,0,Experiment,NULL,Text,FlashSentence,Print,NA,1673711147383,14,4,long-distance,yes,NULL
1673711229,540e00b3724ec6403f43791ac18904b1,PennController,30,0,Experiment,NULL,Scale,q,Choice,3,1673711154046,14,4,long-distance,yes,NULL
1673711229,540e00b3724ec6403f43791ac18904b1,PennController,30,0,Experiment,NULL,PennController,30,_Trial_,End,1673711154051,14,4,long-distance,yes,NULL
# 13. Comments.
1673711229,540e00b3724ec6403f43791ac18904b1,PennController,11,0,Filler,NULL,PennController,11,_Trial_,Start,1673711154059,NULL
1673711229,540e00b3724ec6403f43791ac18904b1,PennController,11,0,Filler,NULL,Text,FlashSentence,Print,NA,1673711154320,NULL
1673711229,540e00b3724ec6403f43791ac18904b1,PennController,11,0,Filler,NULL,Scale,q,Choice,3,1673711163562,NULL
1673711229,540e00b3724ec6403f43791ac18904b1,PennController,11,0,Filler,NULL,PennController,11,_Trial_,End,1673711163566,NULL
# 13. Item.
# 14. Group.
# 15. License Type.
# 16. ECM.
# 17. Comments.
1673711229,540e00b3724ec6403f43791ac18904b1,PennController,23,0,Experiment,NULL,PennController,23,_Trial_,Start,1673711163575,7,4,licensed,yes,NULL
1673711229,540e00b3724ec6403f43791ac18904b1,PennController,23,0,Experiment,NULL,Text,FlashSentence,Print,NA,1673711163834,7,4,licensed,yes,NULL
1673711229,540e00b3724ec6403f43791ac18904b1,PennController,23,0,Experiment,NULL,Scale,q,Choice,5,1673711175379,7,4,licensed,yes,NULL
1673711229,540e00b3724ec6403f43791ac18904b1,PennController,23,0,Experiment,NULL,PennController,23,_Trial_,End,1673711175383,7,4,licensed,yes,NULL
1673711229,540e00b3724ec6403f43791ac18904b1,PennController,34,0,Experiment,NULL,PennController,34,_Trial_,Start,1673711175390,18,4,unlicensed,no,NULL
1673711229,540e00b3724ec6403f43791ac18904b1,PennController,34,0,Experiment,NULL,Text,FlashSentence,Print,NA,1673711175645,18,4,unlicensed,no,NULL
1673711229,540e00b3724ec6403f43791ac18904b1,PennController,34,0,Experiment,NULL,Scale,q,Choice,1,1673711185671,18,4,unlicensed,no,NULL
1673711229,540e00b3724ec6403f43791ac18904b1,PennController,34,0,Experiment,NULL,PennController,34,_Trial_,End,1673711185675,18,4,unlicensed,no,NULL
# 13. Comments.
1673711229,540e00b3724ec6403f43791ac18904b1,PennController,10,0,Filler,NULL,PennController,10,_Trial_,Start,1673711185683,NULL
1673711229,540e00b3724ec6403f43791ac18904b1,PennController,10,0,Filler,NULL,Text,FlashSentence,Print,NA,1673711185943,NULL
1673711229,540e00b3724ec6403f43791ac18904b1,PennController,10,0,Filler,NULL,Scale,q,Choice,5,1673711189403,NULL
1673711229,540e00b3724ec6403f43791ac18904b1,PennController,10,0,Filler,NULL,PennController,10,_Trial_,End,1673711189407,NULL
# 13. Item.
# 14. Group.
# 15. License Type.
# 16. ECM.
# 17. Comments.
1673711229,540e00b3724ec6403f43791ac18904b1,PennController,22,0,Experiment,NULL,PennController,22,_Trial_,Start,1673711189415,6,4,unlicensed,no,NULL
1673711229,540e00b3724ec6403f43791ac18904b1,PennController,22,0,Experiment,NULL,Text,FlashSentence,Print,NA,1673711189678,6,4,unlicensed,no,NULL
1673711229,540e00b3724ec6403f43791ac18904b1,PennController,22,0,Experiment,NULL,Scale,q,Choice,1,1673711193297,6,4,unlicensed,no,NULL
1673711229,540e00b3724ec6403f43791ac18904b1,PennController,22,0,Experiment,NULL,PennController,22,_Trial_,End,1673711193301,6,4,unlicensed,no,NULL
1673711229,540e00b3724ec6403f43791ac18904b1,PennController,21,0,Experiment,NULL,PennController,21,_Trial_,Start,1673711193309,5,4,long-distance,no,NULL
1673711229,540e00b3724ec6403f43791ac18904b1,PennController,21,0,Experiment,NULL,Text,FlashSentence,Print,NA,1673711193570,5,4,long-distance,no,NULL
1673711229,540e00b3724ec6403f43791ac18904b1,PennController,21,0,Experiment,NULL,Scale,q,Choice,5,1673711202272,5,4,long-distance,no,NULL
1673711229,540e00b3724ec6403f43791ac18904b1,PennController,21,0,Experiment,NULL,PennController,21,_Trial_,End,1673711202275,5,4,long-distance,no,NULL
# 13. Comments.
1673711229,540e00b3724ec6403f43791ac18904b1,PennController,9,0,Filler,NULL,PennController,9,_Trial_,Start,1673711202282,NULL
1673711229,540e00b3724ec6403f43791ac18904b1,PennController,9,0,Filler,NULL,Text,FlashSentence,Print,NA,1673711202541,NULL
1673711229,540e00b3724ec6403f43791ac18904b1,PennController,9,0,Filler,NULL,Scale,q,Choice,4,1673711212685,NULL
1673711229,540e00b3724ec6403f43791ac18904b1,PennController,9,0,Filler,NULL,PennController,9,_Trial_,End,1673711212689,NULL
# 13. Item.
# 14. Group.
# 15. License Type.
# 16. ECM.
# 17. Comments.
1673711229,540e00b3724ec6403f43791ac18904b1,PennController,24,0,Experiment,NULL,PennController,24,_Trial_,Start,1673711212694,8,4,long-distance,yes,NULL
1673711229,540e00b3724ec6403f43791ac18904b1,PennController,24,0,Experiment,NULL,Text,FlashSentence,Print,NA,1673711212954,8,4,long-distance,yes,NULL
1673711229,540e00b3724ec6403f43791ac18904b1,PennController,24,0,Experiment,NULL,Scale,q,Choice,2,1673711218036,8,4,long-distance,yes,NULL
1673711229,540e00b3724ec6403f43791ac18904b1,PennController,24,0,Experiment,NULL,PennController,24,_Trial_,End,1673711218039,8,4,long-distance,yes,NULL
1673711229,540e00b3724ec6403f43791ac18904b1,PennController,33,0,Experiment,NULL,PennController,33,_Trial_,Start,1673711218046,17,4,long-distance,no,NULL
1673711229,540e00b3724ec6403f43791ac18904b1,PennController,33,0,Experiment,NULL,Text,FlashSentence,Print,NA,1673711218306,17,4,long-distance,no,NULL
1673711229,540e00b3724ec6403f43791ac18904b1,PennController,33,0,Experiment,NULL,Scale,q,Choice,1,1673711224210,17,4,long-distance,no,NULL
1673711229,540e00b3724ec6403f43791ac18904b1,PennController,33,0,Experiment,NULL,PennController,33,_Trial_,End,1673711224214,17,4,long-distance,no,NULL
# 13. Comments.
1673711229,540e00b3724ec6403f43791ac18904b1,PennController,16,0,Filler,NULL,PennController,16,_Trial_,Start,1673711224221,NULL
1673711229,540e00b3724ec6403f43791ac18904b1,PennController,16,0,Filler,NULL,Text,FlashSentence,Print,NA,1673711224481,NULL
1673711229,540e00b3724ec6403f43791ac18904b1,PennController,16,0,Filler,NULL,Scale,q,Choice,5,1673711228419,NULL
1673711229,540e00b3724ec6403f43791ac18904b1,PennController,16,0,Filler,NULL,PennController,16,_Trial_,End,1673711228423,NULL
#
# Results on Sat, 14 Jan 2023 15:47:18 GMT
# USER AGENT: Mozilla/5.0 (iPhone; CPU iPhone OS 16_1_1 like Mac OS X) AppleWebKit/605.1.15 (KHTML, like Gecko) Version/16.1 Mobile/15E148 Safari/604.1
# Design number was non-random = 3
#
# Columns below this comment are as follows:
# 1. Results reception time.
# 2. MD5 hash of participant's IP address.
# 3. Controller name.
# 4. Order number of item.
# 5. Inner element number.
# 6. Label.
# 7. Latin Square Group.
# 8. PennElementType.
# 9. PennElementName.
# 10. Parameter.
# 11. Value.
# 12. EventTime.
# 13. Comments.
1673711238,c86be591a3f368a7712dfe02dfe67de5,PennController,1,0,Consent,NULL,PennController,0,_Trial_,Start,1673710848102,NULL
1673711238,c86be591a3f368a7712dfe02dfe67de5,PennController,1,0,Consent,NULL,TextInput,input_name,First,,1673710921512,D
1673711238,c86be591a3f368a7712dfe02dfe67de5,PennController,1,0,Consent,NULL,TextInput,input_name,Final,Damla,1673710926758,NULL
1673711238,c86be591a3f368a7712dfe02dfe67de5,PennController,1,0,Consent,NULL,PennController,0,_Trial_,End,1673710926759,NULL
1673711238,c86be591a3f368a7712dfe02dfe67de5,PennController,2,0,ExpInstructions,NULL,PennController,1,_Trial_,Start,1673710926774,NULL
1673711238,c86be591a3f368a7712dfe02dfe67de5,PennController,2,0,ExpInstructions,NULL,PennController,1,_Trial_,End,1673710952190,NULL
1673711238,c86be591a3f368a7712dfe02dfe67de5,PennController,3,0,PracticeInstructions,NULL,PennController,2,_Trial_,Start,1673710952202,NULL
1673711238,c86be591a3f368a7712dfe02dfe67de5,PennController,3,0,PracticeInstructions,NULL,PennController,2,_Trial_,End,1673710966055,NULL
1673711238,c86be591a3f368a7712dfe02dfe67de5,PennController,4,0,PracticeTrial,NULL,PennController,5,_Trial_,Start,1673710966067,NULL
1673711238,c86be591a3f368a7712dfe02dfe67de5,PennController,4,0,PracticeTrial,NULL,Text,FlashSentence,Print,NA,1673710966331,NULL
1673711238,c86be591a3f368a7712dfe02dfe67de5,PennController,4,0,PracticeTrial,NULL,Scale,q,Choice,4,1673710977932,NULL
1673711238,c86be591a3f368a7712dfe02dfe67de5,PennController,4,0,PracticeTrial,NULL,PennController,5,_Trial_,End,1673710977938,NULL
1673711238,c86be591a3f368a7712dfe02dfe67de5,PennController,5,0,PracticeTrial,NULL,PennController,6,_Trial_,Start,1673710977947,NULL
1673711238,c86be591a3f368a7712dfe02dfe67de5,PennController,5,0,PracticeTrial,NULL,Text,FlashSentence,Print,NA,1673710978205,NULL
1673711238,c86be591a3f368a7712dfe02dfe67de5,PennController,5,0,PracticeTrial,NULL,Scale,q,Choice,1,1673710993521,NULL
1673711238,c86be591a3f368a7712dfe02dfe67de5,PennController,5,0,PracticeTrial,NULL,PennController,6,_Trial_,End,1673710993526,NULL
1673711238,c86be591a3f368a7712dfe02dfe67de5,PennController,6,0,PracticeTrial,NULL,PennController,7,_Trial_,Start,1673710993537,NULL
1673711238,c86be591a3f368a7712dfe02dfe67de5,PennController,6,0,PracticeTrial,NULL,Text,FlashSentence,Print,NA,1673710993804,NULL
1673711238,c86be591a3f368a7712dfe02dfe67de5,PennController,6,0,PracticeTrial,NULL,Scale,q,Choice,2,1673711006437,NULL
1673711238,c86be591a3f368a7712dfe02dfe67de5,PennController,6,0,PracticeTrial,NULL,PennController,7,_Trial_,End,1673711006442,NULL
1673711238,c86be591a3f368a7712dfe02dfe67de5,PennController,7,0,expstarts,NULL,PennController,3,_Trial_,Start,1673711006451,NULL
1673711238,c86be591a3f368a7712dfe02dfe67de5,PennController,7,0,expstarts,NULL,PennController,3,_Trial_,End,1673711011469,NULL
# 13. Item.
# 14. Group.
# 15. License Type.
# 16. ECM.
# 17. Comments.
1673711238,c86be591a3f368a7712dfe02dfe67de5,PennController,33,0,Experiment,NULL,PennController,33,_Trial_,Start,1673711011480,17,4,long-distance,no,NULL
1673711238,c86be591a3f368a7712dfe02dfe67de5,PennController,33,0,Experiment,NULL,Text,FlashSentence,Print,NA,1673711011744,17,4,long-distance,no,NULL
1673711238,c86be591a3f368a7712dfe02dfe67de5,PennController,33,0,Experiment,NULL,Scale,q,Choice,3,1673711021795,17,4,long-distance,no,NULL
1673711238,c86be591a3f368a7712dfe02dfe67de5,PennController,33,0,Experiment,NULL,PennController,33,_Trial_,End,1673711021800,17,4,long-distance,no,NULL
1673711238,c86be591a3f368a7712dfe02dfe67de5,PennController,23,0,Experiment,NULL,PennController,23,_Trial_,Start,1673711021809,7,4,licensed,yes,NULL
1673711238,c86be591a3f368a7712dfe02dfe67de5,PennController,23,0,Experiment,NULL,Text,FlashSentence,Print,NA,1673711022094,7,4,licensed,yes,NULL
1673711238,c86be591a3f368a7712dfe02dfe67de5,PennController,23,0,Experiment,NULL,Scale,q,Choice,2,1673711031945,7,4,licensed,yes,NULL
1673711238,c86be591a3f368a7712dfe02dfe67de5,PennController,23,0,Experiment,NULL,PennController,23,_Trial_,End,1673711031950,7,4,licensed,yes,NULL
# 13. Comments.
1673711238,c86be591a3f368a7712dfe02dfe67de5,PennController,12,0,Filler,NULL,PennController,12,_Trial_,Start,1673711031959,NULL
1673711238,c86be591a3f368a7712dfe02dfe67de5,PennController,12,0,Filler,NULL,Text,FlashSentence,Print,NA,1673711032233,NULL
1673711238,c86be591a3f368a7712dfe02dfe67de5,PennController,12,0,Filler,NULL,Scale,q,Choice,5,1673711043735,NULL
1673711238,c86be591a3f368a7712dfe02dfe67de5,PennController,12,0,Filler,NULL,PennController,12,_Trial_,End,1673711043738,NULL
# 13. Item.
# 14. Group.
# 15. License Type.
# 16. ECM.
# 17. Comments.
1673711238,c86be591a3f368a7712dfe02dfe67de5,PennController,21,0,Experiment,NULL,PennController,21,_Trial_,Start,1673711043747,5,4,long-distance,no,NULL
1673711238,c86be591a3f368a7712dfe02dfe67de5,PennController,21,0,Experiment,NULL,Text,FlashSentence,Print,NA,1673711044023,5,4,long-distance,no,NULL
1673711238,c86be591a3f368a7712dfe02dfe67de5,PennController,21,0,Experiment,NULL,Scale,q,Choice,4,1673711067399,5,4,long-distance,no,NULL
1673711238,c86be591a3f368a7712dfe02dfe67de5,PennController,21,0,Experiment,NULL,PennController,21,_Trial_,End,1673711067403,5,4,long-distance,no,NULL
1673711238,c86be591a3f368a7712dfe02dfe67de5,PennController,17,0,Experiment,NULL,PennController,17,_Trial_,Start,1673711067412,1,4,licensed,yes,NULL
1673711238,c86be591a3f368a7712dfe02dfe67de5,PennController,17,0,Experiment,NULL,Text,FlashSentence,Print,NA,1673711067693,1,4,licensed,yes,NULL
1673711238,c86be591a3f368a7712dfe02dfe67de5,PennController,17,0,Experiment,NULL,Scale,q,Choice,2,1673711087365,1,4,licensed,yes,NULL
1673711238,c86be591a3f368a7712dfe02dfe67de5,PennController,17,0,Experiment,NULL,PennController,17,_Trial_,End,1673711087368,1,4,licensed,yes,NULL
# 13. Comments.
1673711238,c86be591a3f368a7712dfe02dfe67de5,PennController,11,0,Filler,NULL,PennController,11,_Trial_,Start,1673711087377,NULL
1673711238,c86be591a3f368a7712dfe02dfe67de5,PennController,11,0,Filler,NULL,Text,FlashSentence,Print,NA,1673711087639,NULL
1673711238,c86be591a3f368a7712dfe02dfe67de5,PennController,11,0,Filler,NULL,Scale,q,Choice,1,1673711098166,NULL
1673711238,c86be591a3f368a7712dfe02dfe67de5,PennController,11,0,Filler,NULL,PennController,11,_Trial_,End,1673711098169,NULL
# 13. Item.
# 14. Group.
# 15. License Type.
# 16. ECM.
# 17. Comments.
1673711238,c86be591a3f368a7712dfe02dfe67de5,PennController,22,0,Experiment,NULL,PennController,22,_Trial_,Start,1673711098177,6,4,unlicensed,no,NULL
1673711238,c86be591a3f368a7712dfe02dfe67de5,PennController,22,0,Experiment,NULL,Text,FlashSentence,Print,NA,1673711098441,6,4,unlicensed,no,NULL
1673711238,c86be591a3f368a7712dfe02dfe67de5,PennController,22,0,Experiment,NULL,Scale,q,Choice,1,1673711108614,6,4,unlicensed,no,NULL
1673711238,c86be591a3f368a7712dfe02dfe67de5,PennController,22,0,Experiment,NULL,PennController,22,_Trial_,End,1673711108617,6,4,unlicensed,no,NULL
1673711238,c86be591a3f368a7712dfe02dfe67de5,PennController,32,0,Experiment,NULL,PennController,32,_Trial_,Start,1673711108625,16,4,licensed,no,NULL
1673711238,c86be591a3f368a7712dfe02dfe67de5,PennController,32,0,Experiment,NULL,Text,FlashSentence,Print,NA,1673711108911,16,4,licensed,no,NULL
1673711238,c86be591a3f368a7712dfe02dfe67de5,PennController,32,0,Experiment,NULL,Scale,q,Choice,5,1673711114048,16,4,licensed,no,NULL
1673711238,c86be591a3f368a7712dfe02dfe67de5,PennController,32,0,Experiment,NULL,PennController,32,_Trial_,End,1673711114051,16,4,licensed,no,NULL
# 13. Comments.
1673711238,c86be591a3f368a7712dfe02dfe67de5,PennController,13,0,Filler,NULL,PennController,13,_Trial_,Start,1673711114059,NULL
1673711238,c86be591a3f368a7712dfe02dfe67de5,PennController,13,0,Filler,NULL,Text,FlashSentence,Print,NA,1673711114340,NULL
1673711238,c86be591a3f368a7712dfe02dfe67de5,PennController,13,0,Filler,NULL,Scale,q,Choice,5,1673711122764,NULL
1673711238,c86be591a3f368a7712dfe02dfe67de5,PennController,13,0,Filler,NULL,PennController,13,_Trial_,End,1673711122768,NULL
# 13. Item.
# 14. Group.
# 15. License Type.
# 16. ECM.
# 17. Comments.
1673711238,c86be591a3f368a7712dfe02dfe67de5,PennController,30,0,Experiment,NULL,PennController,30,_Trial_,Start,1673711122776,14,4,long-distance,yes,NULL
1673711238,c86be591a3f368a7712dfe02dfe67de5,PennController,30,0,Experiment,NULL,Text,FlashSentence,Print,NA,1673711123041,14,4,long-distance,yes,NULL
1673711238,c86be591a3f368a7712dfe02dfe67de5,PennController,30,0,Experiment,NULL,Scale,q,Choice,3,1673711130381,14,4,long-distance,yes,NULL
1673711238,c86be591a3f368a7712dfe02dfe67de5,PennController,30,0,Experiment,NULL,PennController,30,_Trial_,End,1673711130382,14,4,long-distance,yes,NULL
1673711238,c86be591a3f368a7712dfe02dfe67de5,PennController,34,0,Experiment,NULL,PennController,34,_Trial_,Start,1673711130385,18,4,unlicensed,no,NULL
1673711238,c86be591a3f368a7712dfe02dfe67de5,PennController,34,0,Experiment,NULL,Text,FlashSentence,Print,NA,1673711130660,18,4,unlicensed,no,NULL
1673711238,c86be591a3f368a7712dfe02dfe67de5,PennController,34,0,Experiment,NULL,Scale,q,Choice,1,1673711136939,18,4,unlicensed,no,NULL
1673711238,c86be591a3f368a7712dfe02dfe67de5,PennController,34,0,Experiment,NULL,PennController,34,_Trial_,End,1673711136941,18,4,unlicensed,no,NULL
# 13. Comments.
1673711238,c86be591a3f368a7712dfe02dfe67de5,PennController,16,0,Filler,NULL,PennController,16,_Trial_,Start,1673711136950,NULL
1673711238,c86be591a3f368a7712dfe02dfe67de5,PennController,16,0,Filler,NULL,Text,FlashSentence,Print,NA,1673711137231,NULL
1673711238,c86be591a3f368a7712dfe02dfe67de5,PennController,16,0,Filler,NULL,Scale,q,Choice,5,1673711141174,NULL
1673711238,c86be591a3f368a7712dfe02dfe67de5,PennController,16,0,Filler,NULL,PennController,16,_Trial_,End,1673711141177,NULL
# 13. Item.
# 14. Group.
# 15. License Type.
# 16. ECM.
# 17. Comments.
1673711238,c86be591a3f368a7712dfe02dfe67de5,PennController,25,0,Experiment,NULL,PennController,25,_Trial_,Start,1673711141185,9,4,unlicensed,yes,NULL
1673711238,c86be591a3f368a7712dfe02dfe67de5,PennController,25,0,Experiment,NULL,Text,FlashSentence,Print,NA,1673711141460,9,4,unlicensed,yes,NULL
1673711238,c86be591a3f368a7712dfe02dfe67de5,PennController,25,0,Experiment,NULL,Scale,q,Choice,1,1673711161032,9,4,unlicensed,yes,NULL
1673711238,c86be591a3f368a7712dfe02dfe67de5,PennController,25,0,Experiment,NULL,PennController,25,_Trial_,End,1673711161035,9,4,unlicensed,yes,NULL
1673711238,c86be591a3f368a7712dfe02dfe67de5,PennController,18,0,Experiment,NULL,PennController,18,_Trial_,Start,1673711161043,2,4,long-distance,yes,NULL
1673711238,c86be591a3f368a7712dfe02dfe67de5,PennController,18,0,Experiment,NULL,Text,FlashSentence,Print,NA,1673711161320,2,4,long-distance,yes,NULL
1673711238,c86be591a3f368a7712dfe02dfe67de5,PennController,18,0,Experiment,NULL,Scale,q,Choice,2,1673711165505,2,4,long-distance,yes,NULL
1673711238,c86be591a3f368a7712dfe02dfe67de5,PennController,18,0,Experiment,NULL,PennController,18,_Trial_,End,1673711165508,2,4,long-distance,yes,NULL
# 13. Comments.
1673711238,c86be591a3f368a7712dfe02dfe67de5,PennController,8,0,Filler,NULL,PennController,8,_Trial_,Start,1673711165516,NULL
1673711238,c86be591a3f368a7712dfe02dfe67de5,PennController,8,0,Filler,NULL,Text,FlashSentence,Print,NA,1673711165790,NULL
1673711238,c86be591a3f368a7712dfe02dfe67de5,PennController,8,0,Filler,NULL,Scale,q,Choice,5,1673711169328,NULL
1673711238,c86be591a3f368a7712dfe02dfe67de5,PennController,8,0,Filler,NULL,PennController,8,_Trial_,End,1673711169331,NULL
# 13. Item.
# 14. Group.
# 15. License Type.
# 16. ECM.
# 17. Comments.
1673711238,c86be591a3f368a7712dfe02dfe67de5,PennController,29,0,Experiment,NULL,PennController,29,_Trial_,Start,1673711169339,13,4,licensed,yes,NULL
1673711238,c86be591a3f368a7712dfe02dfe67de5,PennController,29,0,Experiment,NULL,Text,FlashSentence,Print,NA,1673711169600,13,4,licensed,yes,NULL
1673711238,c86be591a3f368a7712dfe02dfe67de5,PennController,29,0,Experiment,NULL,Scale,q,Choice,2,1673711174097,13,4,licensed,yes,NULL
1673711238,c86be591a3f368a7712dfe02dfe67de5,PennController,29,0,Experiment,NULL,PennController,29,_Trial_,End,1673711174100,13,4,licensed,yes,NULL
1673711238,c86be591a3f368a7712dfe02dfe67de5,PennController,26,0,Experiment,NULL,PennController,26,_Trial_,Start,1673711174108,10,4,licensed,no,NULL
1673711238,c86be591a3f368a7712dfe02dfe67de5,PennController,26,0,Experiment,NULL,Text,FlashSentence,Print,NA,1673711174372,10,4,licensed,no,NULL
1673711238,c86be591a3f368a7712dfe02dfe67de5,PennController,26,0,Experiment,NULL,Scale,q,Choice,5,1673711176712,10,4,licensed,no,NULL
1673711238,c86be591a3f368a7712dfe02dfe67de5,PennController,26,0,Experiment,NULL,PennController,26,_Trial_,End,1673711176715,10,4,licensed,no,NULL
# 13. Comments.
1673711238,c86be591a3f368a7712dfe02dfe67de5,PennController,10,0,Filler,NULL,PennController,10,_Trial_,Start,1673711176722,NULL
1673711238,c86be591a3f368a7712dfe02dfe67de5,PennController,10,0,Filler,NULL,Text,FlashSentence,Print,NA,1673711176980,NULL
1673711238,c86be591a3f368a7712dfe02dfe67de5,PennController,10,0,Filler,NULL,Scale,q,Choice,5,1673711180947,NULL
1673711238,c86be591a3f368a7712dfe02dfe67de5,PennController,10,0,Filler,NULL,PennController,10,_Trial_,End,1673711180950,NULL
# 13. Item.
# 14. Group.
# 15. License Type.
# 16. ECM.
# 17. Comments.
1673711238,c86be591a3f368a7712dfe02dfe67de5,PennController,27,0,Experiment,NULL,PennController,27,_Trial_,Start,1673711180959,11,4,long-distance,no,NULL
1673711238,c86be591a3f368a7712dfe02dfe67de5,PennController,27,0,Experiment,NULL,Text,FlashSentence,Print,NA,1673711181240,11,4,long-distance,no,NULL
1673711238,c86be591a3f368a7712dfe02dfe67de5,PennController,27,0,Experiment,NULL,Scale,q,Choice,3,1673711185938,11,4,long-distance,no,NULL
1673711238,c86be591a3f368a7712dfe02dfe67de5,PennController,27,0,Experiment,NULL,PennController,27,_Trial_,End,1673711185940,11,4,long-distance,no,NULL
1673711238,c86be591a3f368a7712dfe02dfe67de5,PennController,20,0,Experiment,NULL,PennController,20,_Trial_,Start,1673711185948,4,4,licensed,no,NULL
1673711238,c86be591a3f368a7712dfe02dfe67de5,PennController,20,0,Experiment,NULL,Text,FlashSentence,Print,NA,1673711186220,4,4,licensed,no,NULL
1673711238,c86be591a3f368a7712dfe02dfe67de5,PennController,20,0,Experiment,NULL,Scale,q,Choice,5,1673711189103,4,4,licensed,no,NULL
1673711238,c86be591a3f368a7712dfe02dfe67de5,PennController,20,0,Experiment,NULL,PennController,20,_Trial_,End,1673711189106,4,4,licensed,no,NULL
# 13. Comments.
1673711238,c86be591a3f368a7712dfe02dfe67de5,PennController,14,0,Filler,NULL,PennController,14,_Trial_,Start,1673711189113,NULL
1673711238,c86be591a3f368a7712dfe02dfe67de5,PennController,14,0,Filler,NULL,Text,FlashSentence,Print,NA,1673711189370,NULL
1673711238,c86be591a3f368a7712dfe02dfe67de5,PennController,14,0,Filler,NULL,Scale,q,Choice,1,1673711196211,NULL
1673711238,c86be591a3f368a7712dfe02dfe67de5,PennController,14,0,Filler,NULL,PennController,14,_Trial_,End,1673711196214,NULL
# 13. Item.
# 14. Group.
# 15. License Type.
# 16. ECM.
# 17. Comments.
1673711238,c86be591a3f368a7712dfe02dfe67de5,PennController,19,0,Experiment,NULL,PennController,19,_Trial_,Start,1673711196221,3,4,unlicensed,yes,NULL
1673711238,c86be591a3f368a7712dfe02dfe67de5,PennController,19,0,Experiment,NULL,Text,FlashSentence,Print,NA,1673711196480,3,4,unlicensed,yes,NULL
1673711238,c86be591a3f368a7712dfe02dfe67de5,PennController,19,0,Experiment,NULL,Scale,q,Choice,1,1673711202677,3,4,unlicensed,yes,NULL
1673711238,c86be591a3f368a7712dfe02dfe67de5,PennController,19,0,Experiment,NULL,PennController,19,_Trial_,End,1673711202681,3,4,unlicensed,yes,NULL
1673711238,c86be591a3f368a7712dfe02dfe67de5,PennController,28,0,Experiment,NULL,PennController,28,_Trial_,Start,1673711202688,12,4,unlicensed,no,NULL
1673711238,c86be591a3f368a7712dfe02dfe67de5,PennController,28,0,Experiment,NULL,Text,FlashSentence,Print,NA,1673711202960,12,4,unlicensed,no,NULL
1673711238,c86be591a3f368a7712dfe02dfe67de5,PennController,28,0,Experiment,NULL,Scale,q,Choice,1,1673711210044,12,4,unlicensed,no,NULL
1673711238,c86be591a3f368a7712dfe02dfe67de5,PennController,28,0,Experiment,NULL,PennController,28,_Trial_,End,1673711210047,12,4,unlicensed,no,NULL
# 13. Comments.
1673711238,c86be591a3f368a7712dfe02dfe67de5,PennController,15,0,Filler,NULL,PennController,15,_Trial_,Start,1673711210055,NULL
1673711238,c86be591a3f368a7712dfe02dfe67de5,PennController,15,0,Filler,NULL,Text,FlashSentence,Print,NA,1673711210339,NULL
1673711238,c86be591a3f368a7712dfe02dfe67de5,PennController,15,0,Filler,NULL,Scale,q,Choice,1,1673711217880,NULL
1673711238,c86be591a3f368a7712dfe02dfe67de5,PennController,15,0,Filler,NULL,PennController,15,_Trial_,End,1673711217883,NULL
# 13. Item.
# 14. Group.
# 15. License Type.
# 16. ECM.
# 17. Comments.
1673711238,c86be591a3f368a7712dfe02dfe67de5,PennController,24,0,Experiment,NULL,PennController,24,_Trial_,Start,1673711217889,8,4,long-distance,yes,NULL
1673711238,c86be591a3f368a7712dfe02dfe67de5,PennController,24,0,Experiment,NULL,Text,FlashSentence,Print,NA,1673711218169,8,4,long-distance,yes,NULL
1673711238,c86be591a3f368a7712dfe02dfe67de5,PennController,24,0,Experiment,NULL,Scale,q,Choice,4,1673711225652,8,4,long-distance,yes,NULL
1673711238,c86be591a3f368a7712dfe02dfe67de5,PennController,24,0,Experiment,NULL,PennController,24,_Trial_,End,1673711225656,8,4,long-distance,yes,NULL
1673711238,c86be591a3f368a7712dfe02dfe67de5,PennController,31,0,Experiment,NULL,PennController,31,_Trial_,Start,1673711225665,15,4,unlicensed,yes,NULL
1673711238,c86be591a3f368a7712dfe02dfe67de5,PennController,31,0,Experiment,NULL,Text,FlashSentence,Print,NA,1673711225939,15,4,unlicensed,yes,NULL
1673711238,c86be591a3f368a7712dfe02dfe67de5,PennController,31,0,Experiment,NULL,Scale,q,Choice,2,1673711231559,15,4,unlicensed,yes,NULL
1673711238,c86be591a3f368a7712dfe02dfe67de5,PennController,31,0,Experiment,NULL,PennController,31,_Trial_,End,1673711231562,15,4,unlicensed,yes,NULL
# 13. Comments.
1673711238,c86be591a3f368a7712dfe02dfe67de5,PennController,9,0,Filler,NULL,PennController,9,_Trial_,Start,1673711231569,NULL
1673711238,c86be591a3f368a7712dfe02dfe67de5,PennController,9,0,Filler,NULL,Text,FlashSentence,Print,NA,1673711231849,NULL
1673711238,c86be591a3f368a7712dfe02dfe67de5,PennController,9,0,Filler,NULL,Scale,q,Choice,5,1673711237284,NULL
1673711238,c86be591a3f368a7712dfe02dfe67de5,PennController,9,0,Filler,NULL,PennController,9,_Trial_,End,1673711237288,NULL
#
# Results on Sat, 14 Jan 2023 15:49:53 GMT
# USER AGENT: Mozilla/5.0 (iPhone; CPU iPhone OS 16_1_2 like Mac OS X) AppleWebKit/605.1.15 (KHTML, like Gecko) Version/16.1 Mobile/15E148 Safari/604.1
# Design number was non-random = 3
#
# Columns below this comment are as follows:
# 1. Results reception time.
# 2. MD5 hash of participant's IP address.
# 3. Controller name.
# 4. Order number of item.
# 5. Inner element number.
# 6. Label.
# 7. Latin Square Group.
# 8. PennElementType.
# 9. PennElementName.
# 10. Parameter.
# 11. Value.
# 12. EventTime.
# 13. Comments.
1673711393,b63ecf71ec3c16326b070e6702a89a75,PennController,1,0,Consent,NULL,PennController,0,_Trial_,Start,1673711115506,NULL
1673711393,b63ecf71ec3c16326b070e6702a89a75,PennController,1,0,Consent,NULL,TextInput,input_name,First,,1673711141402,K
1673711393,b63ecf71ec3c16326b070e6702a89a75,PennController,1,0,Consent,NULL,TextInput,input_name,Final,Kerem,1673711143158,NULL
1673711393,b63ecf71ec3c16326b070e6702a89a75,PennController,1,0,Consent,NULL,PennController,0,_Trial_,End,1673711143159,NULL
1673711393,b63ecf71ec3c16326b070e6702a89a75,PennController,2,0,ExpInstructions,NULL,PennController,1,_Trial_,Start,1673711143181,NULL
1673711393,b63ecf71ec3c16326b070e6702a89a75,PennController,2,0,ExpInstructions,NULL,PennController,1,_Trial_,End,1673711149588,NULL
1673711393,b63ecf71ec3c16326b070e6702a89a75,PennController,3,0,PracticeInstructions,NULL,PennController,2,_Trial_,Start,1673711149600,NULL
1673711393,b63ecf71ec3c16326b070e6702a89a75,PennController,3,0,PracticeInstructions,NULL,PennController,2,_Trial_,End,1673711152656,NULL
1673711393,b63ecf71ec3c16326b070e6702a89a75,PennController,6,0,PracticeTrial,NULL,PennController,7,_Trial_,Start,1673711152668,NULL
1673711393,b63ecf71ec3c16326b070e6702a89a75,PennController,6,0,PracticeTrial,NULL,Text,FlashSentence,Print,NA,1673711152935,NULL
1673711393,b63ecf71ec3c16326b070e6702a89a75,PennController,6,0,PracticeTrial,NULL,Scale,q,Choice,1,1673711166606,NULL
1673711393,b63ecf71ec3c16326b070e6702a89a75,PennController,6,0,PracticeTrial,NULL,PennController,7,_Trial_,End,1673711166612,NULL
1673711393,b63ecf71ec3c16326b070e6702a89a75,PennController,5,0,PracticeTrial,NULL,PennController,6,_Trial_,Start,1673711166621,NULL
1673711393,b63ecf71ec3c16326b070e6702a89a75,PennController,5,0,PracticeTrial,NULL,Text,FlashSentence,Print,NA,1673711166881,NULL
1673711393,b63ecf71ec3c16326b070e6702a89a75,PennController,5,0,PracticeTrial,NULL,Scale,q,Choice,2,1673711171903,NULL
1673711393,b63ecf71ec3c16326b070e6702a89a75,PennController,5,0,PracticeTrial,NULL,PennController,6,_Trial_,End,1673711171907,NULL
1673711393,b63ecf71ec3c16326b070e6702a89a75,PennController,4,0,PracticeTrial,NULL,PennController,5,_Trial_,Start,1673711171917,NULL
1673711393,b63ecf71ec3c16326b070e6702a89a75,PennController,4,0,PracticeTrial,NULL,Text,FlashSentence,Print,NA,1673711172175,NULL
1673711393,b63ecf71ec3c16326b070e6702a89a75,PennController,4,0,PracticeTrial,NULL,Scale,q,Choice,5,1673711174619,NULL
1673711393,b63ecf71ec3c16326b070e6702a89a75,PennController,4,0,PracticeTrial,NULL,PennController,5,_Trial_,End,1673711174624,NULL
1673711393,b63ecf71ec3c16326b070e6702a89a75,PennController,7,0,expstarts,NULL,PennController,3,_Trial_,Start,1673711174633,NULL
1673711393,b63ecf71ec3c16326b070e6702a89a75,PennController,7,0,expstarts,NULL,PennController,3,_Trial_,End,1673711179638,NULL
# 13. Item.
# 14. Group.
# 15. License Type.
# 16. ECM.
# 17. Comments.
1673711393,b63ecf71ec3c16326b070e6702a89a75,PennController,21,0,Experiment,NULL,PennController,21,_Trial_,Start,1673711179650,5,4,long-distance,no,NULL
1673711393,b63ecf71ec3c16326b070e6702a89a75,PennController,21,0,Experiment,NULL,Text,FlashSentence,Print,NA,1673711179911,5,4,long-distance,no,NULL
1673711393,b63ecf71ec3c16326b070e6702a89a75,PennController,21,0,Experiment,NULL,Scale,q,Choice,3,1673711191776,5,4,long-distance,no,NULL
1673711393,b63ecf71ec3c16326b070e6702a89a75,PennController,21,0,Experiment,NULL,PennController,21,_Trial_,End,1673711191781,5,4,long-distance,no,NULL
1673711393,b63ecf71ec3c16326b070e6702a89a75,PennController,26,0,Experiment,NULL,PennController,26,_Trial_,Start,1673711191790,10,4,licensed,no,NULL
1673711393,b63ecf71ec3c16326b070e6702a89a75,PennController,26,0,Experiment,NULL,Text,FlashSentence,Print,NA,1673711192052,10,4,licensed,no,NULL
1673711393,b63ecf71ec3c16326b070e6702a89a75,PennController,26,0,Experiment,NULL,Scale,q,Choice,5,1673711194360,10,4,licensed,no,NULL
1673711393,b63ecf71ec3c16326b070e6702a89a75,PennController,26,0,Experiment,NULL,PennController,26,_Trial_,End,1673711194364,10,4,licensed,no,NULL
# 13. Comments.
1673711393,b63ecf71ec3c16326b070e6702a89a75,PennController,8,0,Filler,NULL,PennController,8,_Trial_,Start,1673711194373,NULL
1673711393,b63ecf71ec3c16326b070e6702a89a75,PennController,8,0,Filler,NULL,Text,FlashSentence,Print,NA,1673711194631,NULL
1673711393,b63ecf71ec3c16326b070e6702a89a75,PennController,8,0,Filler,NULL,Scale,q,Choice,5,1673711197993,NULL
