#
# Results on Sat, 14 Jan 2023 12:14:37 GMT
# USER AGENT: Mozilla/5.0 (Linux; Android 10; Redmi Note 7) AppleWebKit/537.36 (KHTML, like Gecko) Chrome/108.0.0.0 Mobile Safari/537.36
# Design number was non-random = 0
#
# Columns below this comment are as follows:
# 1. Results reception time.
# 2. MD5 hash of participant's IP address.
# 3. Controller name.
# 4. Order number of item.
# 5. Inner element number.
# 6. Label.
# 7. Latin Square Group.
# 8. PennElementType.
# 9. PennElementName.
# 10. Parameter.
# 11. Value.
# 12. EventTime.
# 13. Comments.
1673698477,1f2df2dd73bc6789fd5c0075bfa03219,PennController,1,0,Consent,NULL,PennController,0,_Trial_,Start,1673698093907,NULL
1673698477,1f2df2dd73bc6789fd5c0075bfa03219,PennController,1,0,Consent,NULL,TextInput,input_name,First,,1673698166696,Unidentified
1673698477,1f2df2dd73bc6789fd5c0075bfa03219,PennController,1,0,Consent,NULL,TextInput,input_name,Final,Yağmur,1673698201010,NULL
1673698477,1f2df2dd73bc6789fd5c0075bfa03219,PennController,1,0,Consent,NULL,PennController,0,_Trial_,End,1673698201012,NULL
1673698477,1f2df2dd73bc6789fd5c0075bfa03219,PennController,2,0,ExpInstructions,NULL,PennController,1,_Trial_,Start,1673698201029,NULL
1673698477,1f2df2dd73bc6789fd5c0075bfa03219,PennController,2,0,ExpInstructions,NULL,PennController,1,_Trial_,End,1673698233693,NULL
1673698477,1f2df2dd73bc6789fd5c0075bfa03219,PennController,3,0,PracticeInstructions,NULL,PennController,2,_Trial_,Start,1673698233708,NULL
1673698477,1f2df2dd73bc6789fd5c0075bfa03219,PennController,3,0,PracticeInstructions,NULL,PennController,2,_Trial_,End,1673698248618,NULL
1673698477,1f2df2dd73bc6789fd5c0075bfa03219,PennController,5,0,PracticeTrial,NULL,PennController,6,_Trial_,Start,1673698248629,NULL
1673698477,1f2df2dd73bc6789fd5c0075bfa03219,PennController,5,0,PracticeTrial,NULL,Text,FlashSentence,Print,NA,1673698248922,NULL
1673698477,1f2df2dd73bc6789fd5c0075bfa03219,PennController,5,0,PracticeTrial,NULL,Scale,q,Choice,4,1673698271471,NULL
1673698477,1f2df2dd73bc6789fd5c0075bfa03219,PennController,5,0,PracticeTrial,NULL,PennController,6,_Trial_,End,1673698271487,NULL
1673698477,1f2df2dd73bc6789fd5c0075bfa03219,PennController,4,0,PracticeTrial,NULL,PennController,5,_Trial_,Start,1673698271499,NULL
1673698477,1f2df2dd73bc6789fd5c0075bfa03219,PennController,4,0,PracticeTrial,NULL,Text,FlashSentence,Print,NA,1673698271785,NULL
1673698477,1f2df2dd73bc6789fd5c0075bfa03219,PennController,4,0,PracticeTrial,NULL,Scale,q,Choice,5,1673698276309,NULL
1673698477,1f2df2dd73bc6789fd5c0075bfa03219,PennController,4,0,PracticeTrial,NULL,PennController,5,_Trial_,End,1673698276324,NULL
1673698477,1f2df2dd73bc6789fd5c0075bfa03219,PennController,6,0,PracticeTrial,NULL,PennController,7,_Trial_,Start,1673698276334,NULL
1673698477,1f2df2dd73bc6789fd5c0075bfa03219,PennController,6,0,PracticeTrial,NULL,Text,FlashSentence,Print,NA,1673698276600,NULL
1673698477,1f2df2dd73bc6789fd5c0075bfa03219,PennController,6,0,PracticeTrial,NULL,Scale,q,Choice,5,1673698281130,NULL
1673698477,1f2df2dd73bc6789fd5c0075bfa03219,PennController,6,0,PracticeTrial,NULL,PennController,7,_Trial_,End,1673698281145,NULL
1673698477,1f2df2dd73bc6789fd5c0075bfa03219,PennController,7,0,expstarts,NULL,PennController,3,_Trial_,Start,1673698281153,NULL
1673698477,1f2df2dd73bc6789fd5c0075bfa03219,PennController,7,0,expstarts,NULL,PennController,3,_Trial_,End,1673698286172,NULL
# 13. Item.
# 14. Group.
# 15. License Type.
# 16. nominalizer.
# 17. Comments.
1673698477,1f2df2dd73bc6789fd5c0075bfa03219,PennController,20,0,Experiment,NULL,PennController,20,_Trial_,Start,1673698286176,4,1,licensed,mA,NULL
1673698477,1f2df2dd73bc6789fd5c0075bfa03219,PennController,20,0,Experiment,NULL,Text,FlashSentence,Print,NA,1673698286436,4,1,licensed,mA,NULL
1673698477,1f2df2dd73bc6789fd5c0075bfa03219,PennController,20,0,Experiment,NULL,Scale,q,Choice,5,1673698291166,4,1,licensed,mA,NULL
1673698477,1f2df2dd73bc6789fd5c0075bfa03219,PennController,20,0,Experiment,NULL,PennController,20,_Trial_,End,1673698291173,4,1,licensed,mA,NULL
1673698477,1f2df2dd73bc6789fd5c0075bfa03219,PennController,25,0,Experiment,NULL,PennController,25,_Trial_,Start,1673698291182,9,1,unlicensed,DIk,NULL
1673698477,1f2df2dd73bc6789fd5c0075bfa03219,PennController,25,0,Experiment,NULL,Text,FlashSentence,Print,NA,1673698291460,9,1,unlicensed,DIk,NULL
1673698477,1f2df2dd73bc6789fd5c0075bfa03219,PennController,25,0,Experiment,NULL,Scale,q,Choice,2,1673698307767,9,1,unlicensed,DIk,NULL
1673698477,1f2df2dd73bc6789fd5c0075bfa03219,PennController,25,0,Experiment,NULL,PennController,25,_Trial_,End,1673698307777,9,1,unlicensed,DIk,NULL
# 13. Comments.
1673698477,1f2df2dd73bc6789fd5c0075bfa03219,PennController,8,0,Filler,NULL,PennController,8,_Trial_,Start,1673698307784,NULL
1673698477,1f2df2dd73bc6789fd5c0075bfa03219,PennController,8,0,Filler,NULL,Text,FlashSentence,Print,NA,1673698308059,NULL
1673698477,1f2df2dd73bc6789fd5c0075bfa03219,PennController,8,0,Filler,NULL,Scale,q,Choice,5,1673698315166,NULL
1673698477,1f2df2dd73bc6789fd5c0075bfa03219,PennController,8,0,Filler,NULL,PennController,8,_Trial_,End,1673698315175,NULL
# 13. Item.
# 14. Group.
# 15. License Type.
# 16. nominalizer.
# 17. Comments.
1673698477,1f2df2dd73bc6789fd5c0075bfa03219,PennController,19,0,Experiment,NULL,PennController,19,_Trial_,Start,1673698315181,3,1,unlicensed,DIk,NULL
1673698477,1f2df2dd73bc6789fd5c0075bfa03219,PennController,19,0,Experiment,NULL,Text,FlashSentence,Print,NA,1673698315442,3,1,unlicensed,DIk,NULL
1673698477,1f2df2dd73bc6789fd5c0075bfa03219,PennController,19,0,Experiment,NULL,Scale,q,Choice,1,1673698325624,3,1,unlicensed,DIk,NULL
1673698477,1f2df2dd73bc6789fd5c0075bfa03219,PennController,19,0,Experiment,NULL,PennController,19,_Trial_,End,1673698325633,3,1,unlicensed,DIk,NULL
1673698477,1f2df2dd73bc6789fd5c0075bfa03219,PennController,28,0,Experiment,NULL,PennController,28,_Trial_,Start,1673698325641,12,1,unlicensed,mA,NULL
1673698477,1f2df2dd73bc6789fd5c0075bfa03219,PennController,28,0,Experiment,NULL,Text,FlashSentence,Print,NA,1673698325915,12,1,unlicensed,mA,NULL
1673698477,1f2df2dd73bc6789fd5c0075bfa03219,PennController,28,0,Experiment,NULL,Scale,q,Choice,1,1673698331535,12,1,unlicensed,mA,NULL
1673698477,1f2df2dd73bc6789fd5c0075bfa03219,PennController,28,0,Experiment,NULL,PennController,28,_Trial_,End,1673698331547,12,1,unlicensed,mA,NULL
# 13. Comments.
1673698477,1f2df2dd73bc6789fd5c0075bfa03219,PennController,12,0,Filler,NULL,PennController,12,_Trial_,Start,1673698331553,NULL
1673698477,1f2df2dd73bc6789fd5c0075bfa03219,PennController,12,0,Filler,NULL,Text,FlashSentence,Print,NA,1673698331823,NULL
1673698477,1f2df2dd73bc6789fd5c0075bfa03219,PennController,12,0,Filler,NULL,Scale,q,Choice,5,1673698336840,NULL
1673698477,1f2df2dd73bc6789fd5c0075bfa03219,PennController,12,0,Filler,NULL,PennController,12,_Trial_,End,1673698336854,NULL
# 13. Item.
# 14. Group.
# 15. License Type.
# 16. nominalizer.
# 17. Comments.
1673698477,1f2df2dd73bc6789fd5c0075bfa03219,PennController,22,0,Experiment,NULL,PennController,22,_Trial_,Start,1673698336862,6,1,unlicensed,mA,NULL
1673698477,1f2df2dd73bc6789fd5c0075bfa03219,PennController,22,0,Experiment,NULL,Text,FlashSentence,Print,NA,1673698337139,6,1,unlicensed,mA,NULL
1673698477,1f2df2dd73bc6789fd5c0075bfa03219,PennController,22,0,Experiment,NULL,Scale,q,Choice,1,1673698347759,6,1,unlicensed,mA,NULL
1673698477,1f2df2dd73bc6789fd5c0075bfa03219,PennController,22,0,Experiment,NULL,PennController,22,_Trial_,End,1673698347771,6,1,unlicensed,mA,NULL
1673698477,1f2df2dd73bc6789fd5c0075bfa03219,PennController,23,0,Experiment,NULL,PennController,23,_Trial_,Start,1673698347781,7,1,licensed,DIk,NULL
1673698477,1f2df2dd73bc6789fd5c0075bfa03219,PennController,23,0,Experiment,NULL,Text,FlashSentence,Print,NA,1673698348050,7,1,licensed,DIk,NULL
1673698477,1f2df2dd73bc6789fd5c0075bfa03219,PennController,23,0,Experiment,NULL,Scale,q,Choice,5,1673698350679,7,1,licensed,DIk,NULL
1673698477,1f2df2dd73bc6789fd5c0075bfa03219,PennController,23,0,Experiment,NULL,PennController,23,_Trial_,End,1673698350692,7,1,licensed,DIk,NULL
# 13. Comments.
1673698477,1f2df2dd73bc6789fd5c0075bfa03219,PennController,15,0,Filler,NULL,PennController,15,_Trial_,Start,1673698350702,NULL
1673698477,1f2df2dd73bc6789fd5c0075bfa03219,PennController,15,0,Filler,NULL,Text,FlashSentence,Print,NA,1673698350976,NULL
1673698477,1f2df2dd73bc6789fd5c0075bfa03219,PennController,15,0,Filler,NULL,Scale,q,Choice,1,1673698359156,NULL
1673698477,1f2df2dd73bc6789fd5c0075bfa03219,PennController,15,0,Filler,NULL,PennController,15,_Trial_,End,1673698359161,NULL
# 13. Item.
# 14. Group.
# 15. License Type.
# 16. nominalizer.
# 17. Comments.
1673698477,1f2df2dd73bc6789fd5c0075bfa03219,PennController,21,0,Experiment,NULL,PennController,21,_Trial_,Start,1673698359166,5,1,long-distance,mA,NULL
1673698477,1f2df2dd73bc6789fd5c0075bfa03219,PennController,21,0,Experiment,NULL,Text,FlashSentence,Print,NA,1673698359437,5,1,long-distance,mA,NULL
1673698477,1f2df2dd73bc6789fd5c0075bfa03219,PennController,21,0,Experiment,NULL,Scale,q,Choice,2,1673698368211,5,1,long-distance,mA,NULL
1673698477,1f2df2dd73bc6789fd5c0075bfa03219,PennController,21,0,Experiment,NULL,PennController,21,_Trial_,End,1673698368222,5,1,long-distance,mA,NULL
1673698477,1f2df2dd73bc6789fd5c0075bfa03219,PennController,27,0,Experiment,NULL,PennController,27,_Trial_,Start,1673698368230,11,1,long-distance,mA,NULL
1673698477,1f2df2dd73bc6789fd5c0075bfa03219,PennController,27,0,Experiment,NULL,Text,FlashSentence,Print,NA,1673698368507,11,1,long-distance,mA,NULL
1673698477,1f2df2dd73bc6789fd5c0075bfa03219,PennController,27,0,Experiment,NULL,Scale,q,Choice,5,1673698372098,11,1,long-distance,mA,NULL
1673698477,1f2df2dd73bc6789fd5c0075bfa03219,PennController,27,0,Experiment,NULL,PennController,27,_Trial_,End,1673698372110,11,1,long-distance,mA,NULL
# 13. Comments.
1673698477,1f2df2dd73bc6789fd5c0075bfa03219,PennController,9,0,Filler,NULL,PennController,9,_Trial_,Start,1673698372118,NULL
1673698477,1f2df2dd73bc6789fd5c0075bfa03219,PennController,9,0,Filler,NULL,Text,FlashSentence,Print,NA,1673698372395,NULL
1673698477,1f2df2dd73bc6789fd5c0075bfa03219,PennController,9,0,Filler,NULL,Scale,q,Choice,5,1673698382680,NULL
1673698477,1f2df2dd73bc6789fd5c0075bfa03219,PennController,9,0,Filler,NULL,PennController,9,_Trial_,End,1673698382698,NULL
# 13. Item.
# 14. Group.
# 15. License Type.
# 16. nominalizer.
# 17. Comments.
1673698477,1f2df2dd73bc6789fd5c0075bfa03219,PennController,31,0,Experiment,NULL,PennController,31,_Trial_,Start,1673698382713,15,1,unlicensed,DIk,NULL
1673698477,1f2df2dd73bc6789fd5c0075bfa03219,PennController,31,0,Experiment,NULL,Text,FlashSentence,Print,NA,1673698382977,15,1,unlicensed,DIk,NULL
1673698477,1f2df2dd73bc6789fd5c0075bfa03219,PennController,31,0,Experiment,NULL,Scale,q,Choice,1,1673698387951,15,1,unlicensed,DIk,NULL
1673698477,1f2df2dd73bc6789fd5c0075bfa03219,PennController,31,0,Experiment,NULL,PennController,31,_Trial_,End,1673698387965,15,1,unlicensed,DIk,NULL
1673698477,1f2df2dd73bc6789fd5c0075bfa03219,PennController,18,0,Experiment,NULL,PennController,18,_Trial_,Start,1673698387982,2,1,long-distance,DIk,NULL
1673698477,1f2df2dd73bc6789fd5c0075bfa03219,PennController,18,0,Experiment,NULL,Text,FlashSentence,Print,NA,1673698388254,2,1,long-distance,DIk,NULL
1673698477,1f2df2dd73bc6789fd5c0075bfa03219,PennController,18,0,Experiment,NULL,Scale,q,Choice,5,1673698394240,2,1,long-distance,DIk,NULL
1673698477,1f2df2dd73bc6789fd5c0075bfa03219,PennController,18,0,Experiment,NULL,PennController,18,_Trial_,End,1673698394253,2,1,long-distance,DIk,NULL
# 13. Comments.
1673698477,1f2df2dd73bc6789fd5c0075bfa03219,PennController,11,0,Filler,NULL,PennController,11,_Trial_,Start,1673698394273,NULL
1673698477,1f2df2dd73bc6789fd5c0075bfa03219,PennController,11,0,Filler,NULL,Text,FlashSentence,Print,NA,1673698394550,NULL
1673698477,1f2df2dd73bc6789fd5c0075bfa03219,PennController,11,0,Filler,NULL,Scale,q,Choice,3,1673698410571,NULL
1673698477,1f2df2dd73bc6789fd5c0075bfa03219,PennController,11,0,Filler,NULL,PennController,11,_Trial_,End,1673698410580,NULL
# 13. Item.
# 14. Group.
# 15. License Type.
# 16. nominalizer.
# 17. Comments.
1673698477,1f2df2dd73bc6789fd5c0075bfa03219,PennController,34,0,Experiment,NULL,PennController,34,_Trial_,Start,1673698410590,18,1,unlicensed,mA,NULL
1673698477,1f2df2dd73bc6789fd5c0075bfa03219,PennController,34,0,Experiment,NULL,Text,FlashSentence,Print,NA,1673698410859,18,1,unlicensed,mA,NULL
1673698477,1f2df2dd73bc6789fd5c0075bfa03219,PennController,34,0,Experiment,NULL,Scale,q,Choice,1,1673698416508,18,1,unlicensed,mA,NULL
1673698477,1f2df2dd73bc6789fd5c0075bfa03219,PennController,34,0,Experiment,NULL,PennController,34,_Trial_,End,1673698416522,18,1,unlicensed,mA,NULL
1673698477,1f2df2dd73bc6789fd5c0075bfa03219,PennController,33,0,Experiment,NULL,PennController,33,_Trial_,Start,1673698416529,17,1,long-distance,mA,NULL
1673698477,1f2df2dd73bc6789fd5c0075bfa03219,PennController,33,0,Experiment,NULL,Text,FlashSentence,Print,NA,1673698416813,17,1,long-distance,mA,NULL
1673698477,1f2df2dd73bc6789fd5c0075bfa03219,PennController,33,0,Experiment,NULL,Scale,q,Choice,1,1673698422613,17,1,long-distance,mA,NULL
1673698477,1f2df2dd73bc6789fd5c0075bfa03219,PennController,33,0,Experiment,NULL,PennController,33,_Trial_,End,1673698422625,17,1,long-distance,mA,NULL
# 13. Comments.
1673698477,1f2df2dd73bc6789fd5c0075bfa03219,PennController,14,0,Filler,NULL,PennController,14,_Trial_,Start,1673698422631,NULL
1673698477,1f2df2dd73bc6789fd5c0075bfa03219,PennController,14,0,Filler,NULL,Text,FlashSentence,Print,NA,1673698422896,NULL
1673698477,1f2df2dd73bc6789fd5c0075bfa03219,PennController,14,0,Filler,NULL,Scale,q,Choice,2,1673698429765,NULL
1673698477,1f2df2dd73bc6789fd5c0075bfa03219,PennController,14,0,Filler,NULL,PennController,14,_Trial_,End,1673698429786,NULL
# 13. Item.
# 14. Group.
# 15. License Type.
# 16. nominalizer.
# 17. Comments.
1673698477,1f2df2dd73bc6789fd5c0075bfa03219,PennController,24,0,Experiment,NULL,PennController,24,_Trial_,Start,1673698429794,8,1,long-distance,DIk,NULL
1673698477,1f2df2dd73bc6789fd5c0075bfa03219,PennController,24,0,Experiment,NULL,Text,FlashSentence,Print,NA,1673698430068,8,1,long-distance,DIk,NULL
1673698477,1f2df2dd73bc6789fd5c0075bfa03219,PennController,24,0,Experiment,NULL,Scale,q,Choice,5,1673698437572,8,1,long-distance,DIk,NULL
1673698477,1f2df2dd73bc6789fd5c0075bfa03219,PennController,24,0,Experiment,NULL,PennController,24,_Trial_,End,1673698437584,8,1,long-distance,DIk,NULL
1673698477,1f2df2dd73bc6789fd5c0075bfa03219,PennController,32,0,Experiment,NULL,PennController,32,_Trial_,Start,1673698437594,16,1,licensed,mA,NULL
1673698477,1f2df2dd73bc6789fd5c0075bfa03219,PennController,32,0,Experiment,NULL,Text,FlashSentence,Print,NA,1673698437864,16,1,licensed,mA,NULL
1673698477,1f2df2dd73bc6789fd5c0075bfa03219,PennController,32,0,Experiment,NULL,Scale,q,Choice,5,1673698443534,16,1,licensed,mA,NULL
1673698477,1f2df2dd73bc6789fd5c0075bfa03219,PennController,32,0,Experiment,NULL,PennController,32,_Trial_,End,1673698443547,16,1,licensed,mA,NULL
# 13. Comments.
1673698477,1f2df2dd73bc6789fd5c0075bfa03219,PennController,13,0,Filler,NULL,PennController,13,_Trial_,Start,1673698443553,NULL
1673698477,1f2df2dd73bc6789fd5c0075bfa03219,PennController,13,0,Filler,NULL,Text,FlashSentence,Print,NA,1673698443827,NULL
1673698477,1f2df2dd73bc6789fd5c0075bfa03219,PennController,13,0,Filler,NULL,Scale,q,Choice,5,1673698447832,NULL
1673698477,1f2df2dd73bc6789fd5c0075bfa03219,PennController,13,0,Filler,NULL,PennController,13,_Trial_,End,1673698447841,NULL
# 13. Item.
# 14. Group.
# 15. License Type.
# 16. nominalizer.
# 17. Comments.
1673698477,1f2df2dd73bc6789fd5c0075bfa03219,PennController,26,0,Experiment,NULL,PennController,26,_Trial_,Start,1673698447848,10,1,licensed,mA,NULL
1673698477,1f2df2dd73bc6789fd5c0075bfa03219,PennController,26,0,Experiment,NULL,Text,FlashSentence,Print,NA,1673698448122,10,1,licensed,mA,NULL
1673698477,1f2df2dd73bc6789fd5c0075bfa03219,PennController,26,0,Experiment,NULL,Scale,q,Choice,5,1673698451725,10,1,licensed,mA,NULL
1673698477,1f2df2dd73bc6789fd5c0075bfa03219,PennController,26,0,Experiment,NULL,PennController,26,_Trial_,End,1673698451742,10,1,licensed,mA,NULL
1673698477,1f2df2dd73bc6789fd5c0075bfa03219,PennController,30,0,Experiment,NULL,PennController,30,_Trial_,Start,1673698451753,14,1,long-distance,DIk,NULL
1673698477,1f2df2dd73bc6789fd5c0075bfa03219,PennController,30,0,Experiment,NULL,Text,FlashSentence,Print,NA,1673698452023,14,1,long-distance,DIk,NULL
1673698477,1f2df2dd73bc6789fd5c0075bfa03219,PennController,30,0,Experiment,NULL,Scale,q,Choice,4,1673698459293,14,1,long-distance,DIk,NULL
1673698477,1f2df2dd73bc6789fd5c0075bfa03219,PennController,30,0,Experiment,NULL,PennController,30,_Trial_,End,1673698459307,14,1,long-distance,DIk,NULL
# 13. Comments.
1673698477,1f2df2dd73bc6789fd5c0075bfa03219,PennController,16,0,Filler,NULL,PennController,16,_Trial_,Start,1673698459313,NULL
1673698477,1f2df2dd73bc6789fd5c0075bfa03219,PennController,16,0,Filler,NULL,Text,FlashSentence,Print,NA,1673698459590,NULL
1673698477,1f2df2dd73bc6789fd5c0075bfa03219,PennController,16,0,Filler,NULL,Scale,q,Choice,5,1673698462932,NULL
1673698477,1f2df2dd73bc6789fd5c0075bfa03219,PennController,16,0,Filler,NULL,PennController,16,_Trial_,End,1673698462947,NULL
# 13. Item.
# 14. Group.
# 15. License Type.
# 16. nominalizer.
# 17. Comments.
1673698477,1f2df2dd73bc6789fd5c0075bfa03219,PennController,29,0,Experiment,NULL,PennController,29,_Trial_,Start,1673698462955,13,1,licensed,DIk,NULL
1673698477,1f2df2dd73bc6789fd5c0075bfa03219,PennController,29,0,Experiment,NULL,Text,FlashSentence,Print,NA,1673698463227,13,1,licensed,DIk,NULL
1673698477,1f2df2dd73bc6789fd5c0075bfa03219,PennController,29,0,Experiment,NULL,Scale,q,Choice,5,1673698467569,13,1,licensed,DIk,NULL
1673698477,1f2df2dd73bc6789fd5c0075bfa03219,PennController,29,0,Experiment,NULL,PennController,29,_Trial_,End,1673698467578,13,1,licensed,DIk,NULL
1673698477,1f2df2dd73bc6789fd5c0075bfa03219,PennController,17,0,Experiment,NULL,PennController,17,_Trial_,Start,1673698467583,1,1,licensed,DIk,NULL
1673698477,1f2df2dd73bc6789fd5c0075bfa03219,PennController,17,0,Experiment,NULL,Text,FlashSentence,Print,NA,1673698467843,1,1,licensed,DIk,NULL
1673698477,1f2df2dd73bc6789fd5c0075bfa03219,PennController,17,0,Experiment,NULL,Scale,q,Choice,5,1673698471510,1,1,licensed,DIk,NULL
1673698477,1f2df2dd73bc6789fd5c0075bfa03219,PennController,17,0,Experiment,NULL,PennController,17,_Trial_,End,1673698471523,1,1,licensed,DIk,NULL
# 13. Comments.
1673698477,1f2df2dd73bc6789fd5c0075bfa03219,PennController,10,0,Filler,NULL,PennController,10,_Trial_,Start,1673698471529,NULL
1673698477,1f2df2dd73bc6789fd5c0075bfa03219,PennController,10,0,Filler,NULL,Text,FlashSentence,Print,NA,1673698471826,NULL
1673698477,1f2df2dd73bc6789fd5c0075bfa03219,PennController,10,0,Filler,NULL,Scale,q,Choice,5,1673698476155,NULL
1673698477,1f2df2dd73bc6789fd5c0075bfa03219,PennController,10,0,Filler,NULL,PennController,10,_Trial_,End,1673698476167,NULL
#
# Results on Sat, 14 Jan 2023 12:38:47 GMT
# USER AGENT: Mozilla/5.0 (iPhone; CPU iPhone OS 15_5 like Mac OS X) AppleWebKit/605.1.15 (KHTML, like Gecko) CriOS/108.0.5359.112 Mobile/15E148 Safari/604.1
# Design number was non-random = 1
#
# Columns below this comment are as follows:
# 1. Results reception time.
# 2. MD5 hash of participant's IP address.
# 3. Controller name.
# 4. Order number of item.
# 5. Inner element number.
# 6. Label.
# 7. Latin Square Group.
# 8. PennElementType.
# 9. PennElementName.
# 10. Parameter.
# 11. Value.
# 12. EventTime.
# 13. Comments.
1673699927,4b52bfa7e8cae6fc05aeb3b0e77aaec9,PennController,1,0,Consent,NULL,PennController,0,_Trial_,Start,1673699580896,NULL
1673699927,4b52bfa7e8cae6fc05aeb3b0e77aaec9,PennController,1,0,Consent,NULL,TextInput,input_name,First,,1673699630654,H
1673699927,4b52bfa7e8cae6fc05aeb3b0e77aaec9,PennController,1,0,Consent,NULL,TextInput,input_name,Final,Hasan Gündüz,1673699636898,NULL
1673699927,4b52bfa7e8cae6fc05aeb3b0e77aaec9,PennController,1,0,Consent,NULL,PennController,0,_Trial_,End,1673699636899,NULL
1673699927,4b52bfa7e8cae6fc05aeb3b0e77aaec9,PennController,2,0,ExpInstructions,NULL,PennController,1,_Trial_,Start,1673699636906,NULL
1673699927,4b52bfa7e8cae6fc05aeb3b0e77aaec9,PennController,2,0,ExpInstructions,NULL,PennController,1,_Trial_,End,1673699670622,NULL
1673699927,4b52bfa7e8cae6fc05aeb3b0e77aaec9,PennController,3,0,PracticeInstructions,NULL,PennController,2,_Trial_,Start,1673699670628,NULL
1673699927,4b52bfa7e8cae6fc05aeb3b0e77aaec9,PennController,3,0,PracticeInstructions,NULL,PennController,2,_Trial_,End,1673699680380,NULL
1673699927,4b52bfa7e8cae6fc05aeb3b0e77aaec9,PennController,4,0,PracticeTrial,NULL,PennController,5,_Trial_,Start,1673699680384,NULL
1673699927,4b52bfa7e8cae6fc05aeb3b0e77aaec9,PennController,4,0,PracticeTrial,NULL,Text,FlashSentence,Print,NA,1673699680649,NULL
1673699927,4b52bfa7e8cae6fc05aeb3b0e77aaec9,PennController,4,0,PracticeTrial,NULL,Scale,q,Choice,4,1673699692027,NULL
1673699927,4b52bfa7e8cae6fc05aeb3b0e77aaec9,PennController,4,0,PracticeTrial,NULL,PennController,5,_Trial_,End,1673699692031,NULL
1673699927,4b52bfa7e8cae6fc05aeb3b0e77aaec9,PennController,6,0,PracticeTrial,NULL,PennController,7,_Trial_,Start,1673699692035,NULL
1673699927,4b52bfa7e8cae6fc05aeb3b0e77aaec9,PennController,6,0,PracticeTrial,NULL,Text,FlashSentence,Print,NA,1673699692291,NULL
1673699927,4b52bfa7e8cae6fc05aeb3b0e77aaec9,PennController,6,0,PracticeTrial,NULL,Scale,q,Choice,1,1673699707543,NULL
1673699927,4b52bfa7e8cae6fc05aeb3b0e77aaec9,PennController,6,0,PracticeTrial,NULL,PennController,7,_Trial_,End,1673699707547,NULL
1673699927,4b52bfa7e8cae6fc05aeb3b0e77aaec9,PennController,5,0,PracticeTrial,NULL,PennController,6,_Trial_,Start,1673699707551,NULL
1673699927,4b52bfa7e8cae6fc05aeb3b0e77aaec9,PennController,5,0,PracticeTrial,NULL,Text,FlashSentence,Print,NA,1673699707812,NULL
1673699927,4b52bfa7e8cae6fc05aeb3b0e77aaec9,PennController,5,0,PracticeTrial,NULL,Scale,q,Choice,2,1673699717684,NULL
1673699927,4b52bfa7e8cae6fc05aeb3b0e77aaec9,PennController,5,0,PracticeTrial,NULL,PennController,6,_Trial_,End,1673699717688,NULL
1673699927,4b52bfa7e8cae6fc05aeb3b0e77aaec9,PennController,7,0,expstarts,NULL,PennController,3,_Trial_,Start,1673699717692,NULL
1673699927,4b52bfa7e8cae6fc05aeb3b0e77aaec9,PennController,7,0,expstarts,NULL,PennController,3,_Trial_,End,1673699722700,NULL
# 13. Item.
# 14. Group.
# 15. License Type.
# 16. nominalizer.
# 17. Comments.
1673699927,4b52bfa7e8cae6fc05aeb3b0e77aaec9,PennController,26,0,Experiment,NULL,PennController,26,_Trial_,Start,1673699722705,10,2,long-distance,mA,NULL
1673699927,4b52bfa7e8cae6fc05aeb3b0e77aaec9,PennController,26,0,Experiment,NULL,Text,FlashSentence,Print,NA,1673699722963,10,2,long-distance,mA,NULL
1673699927,4b52bfa7e8cae6fc05aeb3b0e77aaec9,PennController,26,0,Experiment,NULL,Scale,q,Choice,1,1673699733500,10,2,long-distance,mA,NULL
1673699927,4b52bfa7e8cae6fc05aeb3b0e77aaec9,PennController,26,0,Experiment,NULL,PennController,26,_Trial_,End,1673699733503,10,2,long-distance,mA,NULL
1673699927,4b52bfa7e8cae6fc05aeb3b0e77aaec9,PennController,21,0,Experiment,NULL,PennController,21,_Trial_,Start,1673699733506,5,2,unlicensed,mA,NULL
1673699927,4b52bfa7e8cae6fc05aeb3b0e77aaec9,PennController,21,0,Experiment,NULL,Text,FlashSentence,Print,NA,1673699733762,5,2,unlicensed,mA,NULL
1673699927,4b52bfa7e8cae6fc05aeb3b0e77aaec9,PennController,21,0,Experiment,NULL,Scale,q,Choice,2,1673699740765,5,2,unlicensed,mA,NULL
1673699927,4b52bfa7e8cae6fc05aeb3b0e77aaec9,PennController,21,0,Experiment,NULL,PennController,21,_Trial_,End,1673699740771,5,2,unlicensed,mA,NULL
# 13. Comments.
1673699927,4b52bfa7e8cae6fc05aeb3b0e77aaec9,PennController,8,0,Filler,NULL,PennController,8,_Trial_,Start,1673699740776,NULL
1673699927,4b52bfa7e8cae6fc05aeb3b0e77aaec9,PennController,8,0,Filler,NULL,Text,FlashSentence,Print,NA,1673699741035,NULL
1673699927,4b52bfa7e8cae6fc05aeb3b0e77aaec9,PennController,8,0,Filler,NULL,Scale,q,Choice,5,1673699744986,NULL
1673699927,4b52bfa7e8cae6fc05aeb3b0e77aaec9,PennController,8,0,Filler,NULL,PennController,8,_Trial_,End,1673699744990,NULL
# 13. Item.
# 14. Group.
# 15. License Type.
# 16. nominalizer.
# 17. Comments.
1673699927,4b52bfa7e8cae6fc05aeb3b0e77aaec9,PennController,31,0,Experiment,NULL,PennController,31,_Trial_,Start,1673699744994,15,2,licensed,mA,NULL
1673699927,4b52bfa7e8cae6fc05aeb3b0e77aaec9,PennController,31,0,Experiment,NULL,Text,FlashSentence,Print,NA,1673699745253,15,2,licensed,mA,NULL
1673699927,4b52bfa7e8cae6fc05aeb3b0e77aaec9,PennController,31,0,Experiment,NULL,Scale,q,Choice,3,1673699749303,15,2,licensed,mA,NULL
1673699927,4b52bfa7e8cae6fc05aeb3b0e77aaec9,PennController,31,0,Experiment,NULL,PennController,31,_Trial_,End,1673699749305,15,2,licensed,mA,NULL
1673699927,4b52bfa7e8cae6fc05aeb3b0e77aaec9,PennController,18,0,Experiment,NULL,PennController,18,_Trial_,Start,1673699749309,2,2,unlicensed,DIk,NULL
1673699927,4b52bfa7e8cae6fc05aeb3b0e77aaec9,PennController,18,0,Experiment,NULL,Text,FlashSentence,Print,NA,1673699749565,2,2,unlicensed,DIk,NULL
1673699927,4b52bfa7e8cae6fc05aeb3b0e77aaec9,PennController,18,0,Experiment,NULL,Scale,q,Choice,2,1673699753780,2,2,unlicensed,DIk,NULL
1673699927,4b52bfa7e8cae6fc05aeb3b0e77aaec9,PennController,18,0,Experiment,NULL,PennController,18,_Trial_,End,1673699753783,2,2,unlicensed,DIk,NULL
# 13. Comments.
1673699927,4b52bfa7e8cae6fc05aeb3b0e77aaec9,PennController,12,0,Filler,NULL,PennController,12,_Trial_,Start,1673699753788,NULL
1673699927,4b52bfa7e8cae6fc05aeb3b0e77aaec9,PennController,12,0,Filler,NULL,Text,FlashSentence,Print,NA,1673699754049,NULL
1673699927,4b52bfa7e8cae6fc05aeb3b0e77aaec9,PennController,12,0,Filler,NULL,Scale,q,Choice,5,1673699766297,NULL
1673699927,4b52bfa7e8cae6fc05aeb3b0e77aaec9,PennController,12,0,Filler,NULL,PennController,12,_Trial_,End,1673699766302,NULL
# 13. Item.
# 14. Group.
# 15. License Type.
# 16. nominalizer.
# 17. Comments.
1673699927,4b52bfa7e8cae6fc05aeb3b0e77aaec9,PennController,25,0,Experiment,NULL,PennController,25,_Trial_,Start,1673699766307,9,2,licensed,mA,NULL
1673699927,4b52bfa7e8cae6fc05aeb3b0e77aaec9,PennController,25,0,Experiment,NULL,Text,FlashSentence,Print,NA,1673699766563,9,2,licensed,mA,NULL
1673699927,4b52bfa7e8cae6fc05aeb3b0e77aaec9,PennController,25,0,Experiment,NULL,Scale,q,Choice,5,1673699777830,9,2,licensed,mA,NULL
1673699927,4b52bfa7e8cae6fc05aeb3b0e77aaec9,PennController,25,0,Experiment,NULL,PennController,25,_Trial_,End,1673699777834,9,2,licensed,mA,NULL
1673699927,4b52bfa7e8cae6fc05aeb3b0e77aaec9,PennController,22,0,Experiment,NULL,PennController,22,_Trial_,Start,1673699777837,6,2,licensed,DIk,NULL
1673699927,4b52bfa7e8cae6fc05aeb3b0e77aaec9,PennController,22,0,Experiment,NULL,Text,FlashSentence,Print,NA,1673699778093,6,2,licensed,DIk,NULL
1673699927,4b52bfa7e8cae6fc05aeb3b0e77aaec9,PennController,22,0,Experiment,NULL,Scale,q,Choice,5,1673699784155,6,2,licensed,DIk,NULL
1673699927,4b52bfa7e8cae6fc05aeb3b0e77aaec9,PennController,22,0,Experiment,NULL,PennController,22,_Trial_,End,1673699784158,6,2,licensed,DIk,NULL
# 13. Comments.
1673699927,4b52bfa7e8cae6fc05aeb3b0e77aaec9,PennController,13,0,Filler,NULL,PennController,13,_Trial_,Start,1673699784161,NULL
1673699927,4b52bfa7e8cae6fc05aeb3b0e77aaec9,PennController,13,0,Filler,NULL,Text,FlashSentence,Print,NA,1673699784419,NULL
1673699927,4b52bfa7e8cae6fc05aeb3b0e77aaec9,PennController,13,0,Filler,NULL,Scale,q,Choice,5,1673699784964,NULL
1673699927,4b52bfa7e8cae6fc05aeb3b0e77aaec9,PennController,13,0,Filler,NULL,PennController,13,_Trial_,End,1673699784969,NULL
# 13. Item.
# 14. Group.
# 15. License Type.
# 16. nominalizer.
# 17. Comments.
1673699927,4b52bfa7e8cae6fc05aeb3b0e77aaec9,PennController,30,0,Experiment,NULL,PennController,30,_Trial_,Start,1673699784974,14,2,unlicensed,DIk,NULL
1673699927,4b52bfa7e8cae6fc05aeb3b0e77aaec9,PennController,30,0,Experiment,NULL,Text,FlashSentence,Print,NA,1673699785232,14,2,unlicensed,DIk,NULL
1673699927,4b52bfa7e8cae6fc05aeb3b0e77aaec9,PennController,30,0,Experiment,NULL,Scale,q,Choice,2,1673699788977,14,2,unlicensed,DIk,NULL
1673699927,4b52bfa7e8cae6fc05aeb3b0e77aaec9,PennController,30,0,Experiment,NULL,PennController,30,_Trial_,End,1673699788979,14,2,unlicensed,DIk,NULL
1673699927,4b52bfa7e8cae6fc05aeb3b0e77aaec9,PennController,23,0,Experiment,NULL,PennController,23,_Trial_,Start,1673699788983,7,2,long-distance,DIk,NULL
1673699927,4b52bfa7e8cae6fc05aeb3b0e77aaec9,PennController,23,0,Experiment,NULL,Text,FlashSentence,Print,NA,1673699789238,7,2,long-distance,DIk,NULL
1673699927,4b52bfa7e8cae6fc05aeb3b0e77aaec9,PennController,23,0,Experiment,NULL,Scale,q,Choice,3,1673699801094,7,2,long-distance,DIk,NULL
1673699927,4b52bfa7e8cae6fc05aeb3b0e77aaec9,PennController,23,0,Experiment,NULL,PennController,23,_Trial_,End,1673699801098,7,2,long-distance,DIk,NULL
# 13. Comments.
1673699927,4b52bfa7e8cae6fc05aeb3b0e77aaec9,PennController,9,0,Filler,NULL,PennController,9,_Trial_,Start,1673699801103,NULL
1673699927,4b52bfa7e8cae6fc05aeb3b0e77aaec9,PennController,9,0,Filler,NULL,Text,FlashSentence,Print,NA,1673699801360,NULL
1673699927,4b52bfa7e8cae6fc05aeb3b0e77aaec9,PennController,9,0,Filler,NULL,Scale,q,Choice,2,1673699812510,NULL
1673699927,4b52bfa7e8cae6fc05aeb3b0e77aaec9,PennController,9,0,Filler,NULL,PennController,9,_Trial_,End,1673699812513,NULL
# 13. Item.
# 14. Group.
# 15. License Type.
# 16. nominalizer.
# 17. Comments.
1673699927,4b52bfa7e8cae6fc05aeb3b0e77aaec9,PennController,27,0,Experiment,NULL,PennController,27,_Trial_,Start,1673699812516,11,2,unlicensed,mA,NULL
1673699927,4b52bfa7e8cae6fc05aeb3b0e77aaec9,PennController,27,0,Experiment,NULL,Text,FlashSentence,Print,NA,1673699812771,11,2,unlicensed,mA,NULL
1673699927,4b52bfa7e8cae6fc05aeb3b0e77aaec9,PennController,27,0,Experiment,NULL,Scale,q,Choice,1,1673699818202,11,2,unlicensed,mA,NULL
1673699927,4b52bfa7e8cae6fc05aeb3b0e77aaec9,PennController,27,0,Experiment,NULL,PennController,27,_Trial_,End,1673699818206,11,2,unlicensed,mA,NULL
1673699927,4b52bfa7e8cae6fc05aeb3b0e77aaec9,PennController,34,0,Experiment,NULL,PennController,34,_Trial_,Start,1673699818210,18,2,licensed,DIk,NULL
1673699927,4b52bfa7e8cae6fc05aeb3b0e77aaec9,PennController,34,0,Experiment,NULL,Text,FlashSentence,Print,NA,1673699818469,18,2,licensed,DIk,NULL
1673699927,4b52bfa7e8cae6fc05aeb3b0e77aaec9,PennController,34,0,Experiment,NULL,Scale,q,Choice,2,1673699821801,18,2,licensed,DIk,NULL
1673699927,4b52bfa7e8cae6fc05aeb3b0e77aaec9,PennController,34,0,Experiment,NULL,PennController,34,_Trial_,End,1673699821804,18,2,licensed,DIk,NULL
# 13. Comments.
1673699927,4b52bfa7e8cae6fc05aeb3b0e77aaec9,PennController,15,0,Filler,NULL,PennController,15,_Trial_,Start,1673699821808,NULL
1673699927,4b52bfa7e8cae6fc05aeb3b0e77aaec9,PennController,15,0,Filler,NULL,Text,FlashSentence,Print,NA,1673699822064,NULL
1673699927,4b52bfa7e8cae6fc05aeb3b0e77aaec9,PennController,15,0,Filler,NULL,Scale,q,Choice,1,1673699831507,NULL
1673699927,4b52bfa7e8cae6fc05aeb3b0e77aaec9,PennController,15,0,Filler,NULL,PennController,15,_Trial_,End,1673699831510,NULL
# 13. Item.
# 14. Group.
# 15. License Type.
# 16. nominalizer.
# 17. Comments.
1673699927,4b52bfa7e8cae6fc05aeb3b0e77aaec9,PennController,24,0,Experiment,NULL,PennController,24,_Trial_,Start,1673699831513,8,2,unlicensed,DIk,NULL
1673699927,4b52bfa7e8cae6fc05aeb3b0e77aaec9,PennController,24,0,Experiment,NULL,Text,FlashSentence,Print,NA,1673699831771,8,2,unlicensed,DIk,NULL
1673699927,4b52bfa7e8cae6fc05aeb3b0e77aaec9,PennController,24,0,Experiment,NULL,Scale,q,Choice,2,1673699839168,8,2,unlicensed,DIk,NULL
1673699927,4b52bfa7e8cae6fc05aeb3b0e77aaec9,PennController,24,0,Experiment,NULL,PennController,24,_Trial_,End,1673699839171,8,2,unlicensed,DIk,NULL
1673699927,4b52bfa7e8cae6fc05aeb3b0e77aaec9,PennController,29,0,Experiment,NULL,PennController,29,_Trial_,Start,1673699839173,13,2,long-distance,DIk,NULL
1673699927,4b52bfa7e8cae6fc05aeb3b0e77aaec9,PennController,29,0,Experiment,NULL,Text,FlashSentence,Print,NA,1673699839430,13,2,long-distance,DIk,NULL
1673699927,4b52bfa7e8cae6fc05aeb3b0e77aaec9,PennController,29,0,Experiment,NULL,Scale,q,Choice,2,1673699848475,13,2,long-distance,DIk,NULL
1673699927,4b52bfa7e8cae6fc05aeb3b0e77aaec9,PennController,29,0,Experiment,NULL,PennController,29,_Trial_,End,1673699848479,13,2,long-distance,DIk,NULL
# 13. Comments.
1673699927,4b52bfa7e8cae6fc05aeb3b0e77aaec9,PennController,10,0,Filler,NULL,PennController,10,_Trial_,Start,1673699848483,NULL
1673699927,4b52bfa7e8cae6fc05aeb3b0e77aaec9,PennController,10,0,Filler,NULL,Text,FlashSentence,Print,NA,1673699848742,NULL
1673699927,4b52bfa7e8cae6fc05aeb3b0e77aaec9,PennController,10,0,Filler,NULL,Scale,q,Choice,5,1673699857816,NULL
1673699927,4b52bfa7e8cae6fc05aeb3b0e77aaec9,PennController,10,0,Filler,NULL,PennController,10,_Trial_,End,1673699857820,NULL
# 13. Item.
# 14. Group.
# 15. License Type.
# 16. nominalizer.
# 17. Comments.
1673699927,4b52bfa7e8cae6fc05aeb3b0e77aaec9,PennController,20,0,Experiment,NULL,PennController,20,_Trial_,Start,1673699857824,4,2,long-distance,mA,NULL
1673699927,4b52bfa7e8cae6fc05aeb3b0e77aaec9,PennController,20,0,Experiment,NULL,Text,FlashSentence,Print,NA,1673699858084,4,2,long-distance,mA,NULL
1673699927,4b52bfa7e8cae6fc05aeb3b0e77aaec9,PennController,20,0,Experiment,NULL,Scale,q,Choice,3,1673699864057,4,2,long-distance,mA,NULL
1673699927,4b52bfa7e8cae6fc05aeb3b0e77aaec9,PennController,20,0,Experiment,NULL,PennController,20,_Trial_,End,1673699864060,4,2,long-distance,mA,NULL
1673699927,4b52bfa7e8cae6fc05aeb3b0e77aaec9,PennController,28,0,Experiment,NULL,PennController,28,_Trial_,Start,1673699864064,12,2,licensed,DIk,NULL
1673699927,4b52bfa7e8cae6fc05aeb3b0e77aaec9,PennController,28,0,Experiment,NULL,Text,FlashSentence,Print,NA,1673699864323,12,2,licensed,DIk,NULL
1673699927,4b52bfa7e8cae6fc05aeb3b0e77aaec9,PennController,28,0,Experiment,NULL,Scale,q,Choice,5,1673699868965,12,2,licensed,DIk,NULL
1673699927,4b52bfa7e8cae6fc05aeb3b0e77aaec9,PennController,28,0,Experiment,NULL,PennController,28,_Trial_,End,1673699868968,12,2,licensed,DIk,NULL
# 13. Comments.
1673699927,4b52bfa7e8cae6fc05aeb3b0e77aaec9,PennController,16,0,Filler,NULL,PennController,16,_Trial_,Start,1673699868972,NULL
1673699927,4b52bfa7e8cae6fc05aeb3b0e77aaec9,PennController,16,0,Filler,NULL,Text,FlashSentence,Print,NA,1673699869228,NULL
1673699927,4b52bfa7e8cae6fc05aeb3b0e77aaec9,PennController,16,0,Filler,NULL,Scale,q,Choice,5,1673699875601,NULL
1673699927,4b52bfa7e8cae6fc05aeb3b0e77aaec9,PennController,16,0,Filler,NULL,PennController,16,_Trial_,End,1673699875603,NULL
# 13. Item.
# 14. Group.
# 15. License Type.
# 16. nominalizer.
# 17. Comments.
1673699927,4b52bfa7e8cae6fc05aeb3b0e77aaec9,PennController,17,0,Experiment,NULL,PennController,17,_Trial_,Start,1673699875606,1,2,long-distance,DIk,NULL
1673699927,4b52bfa7e8cae6fc05aeb3b0e77aaec9,PennController,17,0,Experiment,NULL,Text,FlashSentence,Print,NA,1673699875862,1,2,long-distance,DIk,NULL
1673699927,4b52bfa7e8cae6fc05aeb3b0e77aaec9,PennController,17,0,Experiment,NULL,Scale,q,Choice,3,1673699886313,1,2,long-distance,DIk,NULL
1673699927,4b52bfa7e8cae6fc05aeb3b0e77aaec9,PennController,17,0,Experiment,NULL,PennController,17,_Trial_,End,1673699886317,1,2,long-distance,DIk,NULL
1673699927,4b52bfa7e8cae6fc05aeb3b0e77aaec9,PennController,33,0,Experiment,NULL,PennController,33,_Trial_,Start,1673699886320,17,2,unlicensed,mA,NULL
1673699927,4b52bfa7e8cae6fc05aeb3b0e77aaec9,PennController,33,0,Experiment,NULL,Text,FlashSentence,Print,NA,1673699886576,17,2,unlicensed,mA,NULL
1673699927,4b52bfa7e8cae6fc05aeb3b0e77aaec9,PennController,33,0,Experiment,NULL,Scale,q,Choice,2,1673699890688,17,2,unlicensed,mA,NULL
1673699927,4b52bfa7e8cae6fc05aeb3b0e77aaec9,PennController,33,0,Experiment,NULL,PennController,33,_Trial_,End,1673699890691,17,2,unlicensed,mA,NULL
# 13. Comments.
1673699927,4b52bfa7e8cae6fc05aeb3b0e77aaec9,PennController,14,0,Filler,NULL,PennController,14,_Trial_,Start,1673699890695,NULL
1673699927,4b52bfa7e8cae6fc05aeb3b0e77aaec9,PennController,14,0,Filler,NULL,Text,FlashSentence,Print,NA,1673699890952,NULL
1673699927,4b52bfa7e8cae6fc05aeb3b0e77aaec9,PennController,14,0,Filler,NULL,Scale,q,Choice,1,1673699897808,NULL
1673699927,4b52bfa7e8cae6fc05aeb3b0e77aaec9,PennController,14,0,Filler,NULL,PennController,14,_Trial_,End,1673699897811,NULL
# 13. Item.
# 14. Group.
# 15. License Type.
# 16. nominalizer.
# 17. Comments.
1673699927,4b52bfa7e8cae6fc05aeb3b0e77aaec9,PennController,32,0,Experiment,NULL,PennController,32,_Trial_,Start,1673699897813,16,2,long-distance,mA,NULL
1673699927,4b52bfa7e8cae6fc05aeb3b0e77aaec9,PennController,32,0,Experiment,NULL,Text,FlashSentence,Print,NA,1673699898069,16,2,long-distance,mA,NULL
1673699927,4b52bfa7e8cae6fc05aeb3b0e77aaec9,PennController,32,0,Experiment,NULL,Scale,q,Choice,1,1673699909059,16,2,long-distance,mA,NULL
1673699927,4b52bfa7e8cae6fc05aeb3b0e77aaec9,PennController,32,0,Experiment,NULL,PennController,32,_Trial_,End,1673699909063,16,2,long-distance,mA,NULL
1673699927,4b52bfa7e8cae6fc05aeb3b0e77aaec9,PennController,19,0,Experiment,NULL,PennController,19,_Trial_,Start,1673699909066,3,2,licensed,mA,NULL
1673699927,4b52bfa7e8cae6fc05aeb3b0e77aaec9,PennController,19,0,Experiment,NULL,Text,FlashSentence,Print,NA,1673699909322,3,2,licensed,mA,NULL
1673699927,4b52bfa7e8cae6fc05aeb3b0e77aaec9,PennController,19,0,Experiment,NULL,Scale,q,Choice,5,1673699913289,3,2,licensed,mA,NULL
1673699927,4b52bfa7e8cae6fc05aeb3b0e77aaec9,PennController,19,0,Experiment,NULL,PennController,19,_Trial_,End,1673699913292,3,2,licensed,mA,NULL
# 13. Comments.
1673699927,4b52bfa7e8cae6fc05aeb3b0e77aaec9,PennController,11,0,Filler,NULL,PennController,11,_Trial_,Start,1673699913296,NULL
1673699927,4b52bfa7e8cae6fc05aeb3b0e77aaec9,PennController,11,0,Filler,NULL,Text,FlashSentence,Print,NA,1673699913554,NULL
1673699927,4b52bfa7e8cae6fc05aeb3b0e77aaec9,PennController,11,0,Filler,NULL,Scale,q,Choice,1,1673699925918,NULL
1673699927,4b52bfa7e8cae6fc05aeb3b0e77aaec9,PennController,11,0,Filler,NULL,PennController,11,_Trial_,End,1673699925922,NULL
#
# Results on Sat, 14 Jan 2023 15:04:32 GMT
# USER AGENT: Mozilla/5.0 (Linux; Android 12; SM-A715F) AppleWebKit/537.36 (KHTML, like Gecko) Chrome/108.0.0.0 Mobile Safari/537.36
# Design number was non-random = 2
#
# Columns below this comment are as follows:
# 1. Results reception time.
# 2. MD5 hash of participant's IP address.
# 3. Controller name.
# 4. Order number of item.
# 5. Inner element number.
# 6. Label.
# 7. Latin Square Group.
# 8. PennElementType.
# 9. PennElementName.
# 10. Parameter.
# 11. Value.
# 12. EventTime.
# 13. Comments.
1673708672,e7fc007856c72f83289be00cf4bf28e6,PennController,1,0,Consent,NULL,PennController,0,_Trial_,Start,1673708420645,NULL
1673708672,e7fc007856c72f83289be00cf4bf28e6,PennController,1,0,Consent,NULL,TextInput,input_name,First,,1673708434095,Unidentified
1673708672,e7fc007856c72f83289be00cf4bf28e6,PennController,1,0,Consent,NULL,TextInput,input_name,Final,Zeynep Nur ,1673708438437,NULL
1673708672,e7fc007856c72f83289be00cf4bf28e6,PennController,1,0,Consent,NULL,PennController,0,_Trial_,End,1673708438439,NULL
1673708672,e7fc007856c72f83289be00cf4bf28e6,PennController,2,0,ExpInstructions,NULL,PennController,1,_Trial_,Start,1673708438450,NULL
1673708672,e7fc007856c72f83289be00cf4bf28e6,PennController,2,0,ExpInstructions,NULL,PennController,1,_Trial_,End,1673708440477,NULL
1673708672,e7fc007856c72f83289be00cf4bf28e6,PennController,3,0,PracticeInstructions,NULL,PennController,2,_Trial_,Start,1673708440482,NULL
1673708672,e7fc007856c72f83289be00cf4bf28e6,PennController,3,0,PracticeInstructions,NULL,PennController,2,_Trial_,End,1673708442119,NULL
1673708672,e7fc007856c72f83289be00cf4bf28e6,PennController,6,0,PracticeTrial,NULL,PennController,7,_Trial_,Start,1673708442122,NULL
1673708672,e7fc007856c72f83289be00cf4bf28e6,PennController,6,0,PracticeTrial,NULL,Text,FlashSentence,Print,NA,1673708442385,NULL
1673708672,e7fc007856c72f83289be00cf4bf28e6,PennController,6,0,PracticeTrial,NULL,Scale,q,Choice,1,1673708458294,NULL
1673708672,e7fc007856c72f83289be00cf4bf28e6,PennController,6,0,PracticeTrial,NULL,PennController,7,_Trial_,End,1673708458302,NULL
1673708672,e7fc007856c72f83289be00cf4bf28e6,PennController,5,0,PracticeTrial,NULL,PennController,6,_Trial_,Start,1673708458308,NULL
1673708672,e7fc007856c72f83289be00cf4bf28e6,PennController,5,0,PracticeTrial,NULL,Text,FlashSentence,Print,NA,1673708458588,NULL
1673708672,e7fc007856c72f83289be00cf4bf28e6,PennController,5,0,PracticeTrial,NULL,Scale,q,Choice,5,1673708473529,NULL
1673708672,e7fc007856c72f83289be00cf4bf28e6,PennController,5,0,PracticeTrial,NULL,PennController,6,_Trial_,End,1673708473538,NULL
1673708672,e7fc007856c72f83289be00cf4bf28e6,PennController,4,0,PracticeTrial,NULL,PennController,5,_Trial_,Start,1673708473541,NULL
1673708672,e7fc007856c72f83289be00cf4bf28e6,PennController,4,0,PracticeTrial,NULL,Text,FlashSentence,Print,NA,1673708473811,NULL
1673708672,e7fc007856c72f83289be00cf4bf28e6,PennController,4,0,PracticeTrial,NULL,Scale,q,Choice,5,1673708478408,NULL
1673708672,e7fc007856c72f83289be00cf4bf28e6,PennController,4,0,PracticeTrial,NULL,PennController,5,_Trial_,End,1673708478414,NULL
1673708672,e7fc007856c72f83289be00cf4bf28e6,PennController,7,0,expstarts,NULL,PennController,3,_Trial_,Start,1673708478420,NULL
1673708672,e7fc007856c72f83289be00cf4bf28e6,PennController,7,0,expstarts,NULL,PennController,3,_Trial_,End,1673708483433,NULL
# 13. Item.
# 14. Group.
# 15. License Type.
# 16. nominalizer.
# 17. Comments.
1673708672,e7fc007856c72f83289be00cf4bf28e6,PennController,18,0,Experiment,NULL,PennController,18,_Trial_,Start,1673708483437,2,3,licensed,mA,NULL
1673708672,e7fc007856c72f83289be00cf4bf28e6,PennController,18,0,Experiment,NULL,Text,FlashSentence,Print,NA,1673708483695,2,3,licensed,mA,NULL
1673708672,e7fc007856c72f83289be00cf4bf28e6,PennController,18,0,Experiment,NULL,Scale,q,Choice,1,1673708493093,2,3,licensed,mA,NULL
1673708672,e7fc007856c72f83289be00cf4bf28e6,PennController,18,0,Experiment,NULL,PennController,18,_Trial_,End,1673708493101,2,3,licensed,mA,NULL
# 13. Comments.
1673708672,e7fc007856c72f83289be00cf4bf28e6,PennController,16,0,Filler,NULL,PennController,16,_Trial_,Start,1673708493104,NULL
1673708672,e7fc007856c72f83289be00cf4bf28e6,PennController,16,0,Filler,NULL,Text,FlashSentence,Print,NA,1673708493363,NULL
1673708672,e7fc007856c72f83289be00cf4bf28e6,PennController,16,0,Filler,NULL,Scale,q,Choice,5,1673708498109,NULL
1673708672,e7fc007856c72f83289be00cf4bf28e6,PennController,16,0,Filler,NULL,PennController,16,_Trial_,End,1673708498116,NULL
# 13. Item.
# 14. Group.
# 15. License Type.
# 16. nominalizer.
# 17. Comments.
1673708672,e7fc007856c72f83289be00cf4bf28e6,PennController,21,0,Experiment,NULL,PennController,21,_Trial_,Start,1673708498121,5,3,licensed,DIk,NULL
1673708672,e7fc007856c72f83289be00cf4bf28e6,PennController,21,0,Experiment,NULL,Text,FlashSentence,Print,NA,1673708498382,5,3,licensed,DIk,NULL
1673708672,e7fc007856c72f83289be00cf4bf28e6,PennController,21,0,Experiment,NULL,Scale,q,Choice,3,1673708509443,5,3,licensed,DIk,NULL
1673708672,e7fc007856c72f83289be00cf4bf28e6,PennController,21,0,Experiment,NULL,PennController,21,_Trial_,End,1673708509447,5,3,licensed,DIk,NULL
1673708672,e7fc007856c72f83289be00cf4bf28e6,PennController,27,0,Experiment,NULL,PennController,27,_Trial_,Start,1673708509451,11,3,licensed,DIk,NULL
1673708672,e7fc007856c72f83289be00cf4bf28e6,PennController,27,0,Experiment,NULL,Text,FlashSentence,Print,NA,1673708509714,11,3,licensed,DIk,NULL
1673708672,e7fc007856c72f83289be00cf4bf28e6,PennController,27,0,Experiment,NULL,Scale,q,Choice,5,1673708514718,11,3,licensed,DIk,NULL
1673708672,e7fc007856c72f83289be00cf4bf28e6,PennController,27,0,Experiment,NULL,PennController,27,_Trial_,End,1673708514722,11,3,licensed,DIk,NULL
# 13. Comments.
1673708672,e7fc007856c72f83289be00cf4bf28e6,PennController,9,0,Filler,NULL,PennController,9,_Trial_,Start,1673708514726,NULL
1673708672,e7fc007856c72f83289be00cf4bf28e6,PennController,9,0,Filler,NULL,Text,FlashSentence,Print,NA,1673708514989,NULL
1673708672,e7fc007856c72f83289be00cf4bf28e6,PennController,9,0,Filler,NULL,Scale,q,Choice,5,1673708526295,NULL
1673708672,e7fc007856c72f83289be00cf4bf28e6,PennController,9,0,Filler,NULL,PennController,9,_Trial_,End,1673708526301,NULL
# 13. Item.
# 14. Group.
# 15. License Type.
# 16. nominalizer.
# 17. Comments.
1673708672,e7fc007856c72f83289be00cf4bf28e6,PennController,33,0,Experiment,NULL,PennController,33,_Trial_,Start,1673708526304,17,3,licensed,DIk,NULL
1673708672,e7fc007856c72f83289be00cf4bf28e6,PennController,33,0,Experiment,NULL,Text,FlashSentence,Print,NA,1673708526563,17,3,licensed,DIk,NULL
1673708672,e7fc007856c72f83289be00cf4bf28e6,PennController,33,0,Experiment,NULL,Scale,q,Choice,5,1673708542467,17,3,licensed,DIk,NULL
1673708672,e7fc007856c72f83289be00cf4bf28e6,PennController,33,0,Experiment,NULL,PennController,33,_Trial_,End,1673708542477,17,3,licensed,DIk,NULL
1673708672,e7fc007856c72f83289be00cf4bf28e6,PennController,25,0,Experiment,NULL,PennController,25,_Trial_,Start,1673708542483,9,3,long-distance,mA,NULL
1673708672,e7fc007856c72f83289be00cf4bf28e6,PennController,25,0,Experiment,NULL,Text,FlashSentence,Print,NA,1673708542742,9,3,long-distance,mA,NULL
1673708672,e7fc007856c72f83289be00cf4bf28e6,PennController,25,0,Experiment,NULL,Scale,q,Choice,1,1673708548635,9,3,long-distance,mA,NULL
1673708672,e7fc007856c72f83289be00cf4bf28e6,PennController,25,0,Experiment,NULL,PennController,25,_Trial_,End,1673708548641,9,3,long-distance,mA,NULL
# 13. Comments.
1673708672,e7fc007856c72f83289be00cf4bf28e6,PennController,15,0,Filler,NULL,PennController,15,_Trial_,Start,1673708548645,NULL
1673708672,e7fc007856c72f83289be00cf4bf28e6,PennController,15,0,Filler,NULL,Text,FlashSentence,Print,NA,1673708548910,NULL
1673708672,e7fc007856c72f83289be00cf4bf28e6,PennController,15,0,Filler,NULL,Scale,q,Choice,1,1673708558241,NULL
1673708672,e7fc007856c72f83289be00cf4bf28e6,PennController,15,0,Filler,NULL,PennController,15,_Trial_,End,1673708558246,NULL
# 13. Item.
# 14. Group.
# 15. License Type.
# 16. nominalizer.
# 17. Comments.
1673708672,e7fc007856c72f83289be00cf4bf28e6,PennController,20,0,Experiment,NULL,PennController,20,_Trial_,Start,1673708558250,4,3,unlicensed,mA,NULL
1673708672,e7fc007856c72f83289be00cf4bf28e6,PennController,20,0,Experiment,NULL,Text,FlashSentence,Print,NA,1673708558519,4,3,unlicensed,mA,NULL
1673708672,e7fc007856c72f83289be00cf4bf28e6,PennController,20,0,Experiment,NULL,Scale,q,Choice,1,1673708573220,4,3,unlicensed,mA,NULL
1673708672,e7fc007856c72f83289be00cf4bf28e6,PennController,20,0,Experiment,NULL,PennController,20,_Trial_,End,1673708573223,4,3,unlicensed,mA,NULL
1673708672,e7fc007856c72f83289be00cf4bf28e6,PennController,34,0,Experiment,NULL,PennController,34,_Trial_,Start,1673708573227,18,3,long-distance,DIk,NULL
1673708672,e7fc007856c72f83289be00cf4bf28e6,PennController,34,0,Experiment,NULL,Text,FlashSentence,Print,NA,1673708573490,18,3,long-distance,DIk,NULL
1673708672,e7fc007856c72f83289be00cf4bf28e6,PennController,34,0,Experiment,NULL,Scale,q,Choice,5,1673708581726,18,3,long-distance,DIk,NULL
1673708672,e7fc007856c72f83289be00cf4bf28e6,PennController,34,0,Experiment,NULL,PennController,34,_Trial_,End,1673708581734,18,3,long-distance,DIk,NULL
# 13. Comments.
1673708672,e7fc007856c72f83289be00cf4bf28e6,PennController,8,0,Filler,NULL,PennController,8,_Trial_,Start,1673708581741,NULL
1673708672,e7fc007856c72f83289be00cf4bf28e6,PennController,8,0,Filler,NULL,Text,FlashSentence,Print,NA,1673708582009,NULL
1673708672,e7fc007856c72f83289be00cf4bf28e6,PennController,8,0,Filler,NULL,Scale,q,Choice,5,1673708584850,NULL
1673708672,e7fc007856c72f83289be00cf4bf28e6,PennController,8,0,Filler,NULL,PennController,8,_Trial_,End,1673708584859,NULL
# 13. Item.
# 14. Group.
# 15. License Type.
# 16. nominalizer.
# 17. Comments.
1673708672,e7fc007856c72f83289be00cf4bf28e6,PennController,29,0,Experiment,NULL,PennController,29,_Trial_,Start,1673708584863,13,3,unlicensed,DIk,NULL
1673708672,e7fc007856c72f83289be00cf4bf28e6,PennController,29,0,Experiment,NULL,Text,FlashSentence,Print,NA,1673708585127,13,3,unlicensed,DIk,NULL
1673708672,e7fc007856c72f83289be00cf4bf28e6,PennController,29,0,Experiment,NULL,Scale,q,Choice,5,1673708592219,13,3,unlicensed,DIk,NULL
1673708672,e7fc007856c72f83289be00cf4bf28e6,PennController,29,0,Experiment,NULL,PennController,29,_Trial_,End,1673708592223,13,3,unlicensed,DIk,NULL
1673708672,e7fc007856c72f83289be00cf4bf28e6,PennController,17,0,Experiment,NULL,PennController,17,_Trial_,Start,1673708592228,1,3,unlicensed,DIk,NULL
1673708672,e7fc007856c72f83289be00cf4bf28e6,PennController,17,0,Experiment,NULL,Text,FlashSentence,Print,NA,1673708592497,1,3,unlicensed,DIk,NULL
1673708672,e7fc007856c72f83289be00cf4bf28e6,PennController,17,0,Experiment,NULL,Scale,q,Choice,1,1673708595802,1,3,unlicensed,DIk,NULL
1673708672,e7fc007856c72f83289be00cf4bf28e6,PennController,17,0,Experiment,NULL,PennController,17,_Trial_,End,1673708595807,1,3,unlicensed,DIk,NULL
# 13. Comments.
1673708672,e7fc007856c72f83289be00cf4bf28e6,PennController,12,0,Filler,NULL,PennController,12,_Trial_,Start,1673708595810,NULL
1673708672,e7fc007856c72f83289be00cf4bf28e6,PennController,12,0,Filler,NULL,Text,FlashSentence,Print,NA,1673708596071,NULL
1673708672,e7fc007856c72f83289be00cf4bf28e6,PennController,12,0,Filler,NULL,Scale,q,Choice,5,1673708601372,NULL
1673708672,e7fc007856c72f83289be00cf4bf28e6,PennController,12,0,Filler,NULL,PennController,12,_Trial_,End,1673708601380,NULL
# 13. Item.
# 14. Group.
# 15. License Type.
# 16. nominalizer.
# 17. Comments.
1673708672,e7fc007856c72f83289be00cf4bf28e6,PennController,28,0,Experiment,NULL,PennController,28,_Trial_,Start,1673708601384,12,3,long-distance,DIk,NULL
1673708672,e7fc007856c72f83289be00cf4bf28e6,PennController,28,0,Experiment,NULL,Text,FlashSentence,Print,NA,1673708601654,12,3,long-distance,DIk,NULL
1673708672,e7fc007856c72f83289be00cf4bf28e6,PennController,28,0,Experiment,NULL,Scale,q,Choice,5,1673708607121,12,3,long-distance,DIk,NULL
1673708672,e7fc007856c72f83289be00cf4bf28e6,PennController,28,0,Experiment,NULL,PennController,28,_Trial_,End,1673708607125,12,3,long-distance,DIk,NULL
1673708672,e7fc007856c72f83289be00cf4bf28e6,PennController,19,0,Experiment,NULL,PennController,19,_Trial_,Start,1673708607129,3,3,long-distance,mA,NULL
1673708672,e7fc007856c72f83289be00cf4bf28e6,PennController,19,0,Experiment,NULL,Text,FlashSentence,Print,NA,1673708607389,3,3,long-distance,mA,NULL
1673708672,e7fc007856c72f83289be00cf4bf28e6,PennController,19,0,Experiment,NULL,Scale,q,Choice,1,1673708610762,3,3,long-distance,mA,NULL
1673708672,e7fc007856c72f83289be00cf4bf28e6,PennController,19,0,Experiment,NULL,PennController,19,_Trial_,End,1673708610767,3,3,long-distance,mA,NULL
# 13. Comments.
1673708672,e7fc007856c72f83289be00cf4bf28e6,PennController,11,0,Filler,NULL,PennController,11,_Trial_,Start,1673708610770,NULL
1673708672,e7fc007856c72f83289be00cf4bf28e6,PennController,11,0,Filler,NULL,Text,FlashSentence,Print,NA,1673708611033,NULL
1673708672,e7fc007856c72f83289be00cf4bf28e6,PennController,11,0,Filler,NULL,Scale,q,Choice,4,1673708621000,NULL
1673708672,e7fc007856c72f83289be00cf4bf28e6,PennController,11,0,Filler,NULL,PennController,11,_Trial_,End,1673708621004,NULL
# 13. Item.
# 14. Group.
# 15. License Type.
# 16. nominalizer.
# 17. Comments.
1673708672,e7fc007856c72f83289be00cf4bf28e6,PennController,30,0,Experiment,NULL,PennController,30,_Trial_,Start,1673708621008,14,3,licensed,mA,NULL
1673708672,e7fc007856c72f83289be00cf4bf28e6,PennController,30,0,Experiment,NULL,Text,FlashSentence,Print,NA,1673708621269,14,3,licensed,mA,NULL
1673708672,e7fc007856c72f83289be00cf4bf28e6,PennController,30,0,Experiment,NULL,Scale,q,Choice,5,1673708626361,14,3,licensed,mA,NULL
1673708672,e7fc007856c72f83289be00cf4bf28e6,PennController,30,0,Experiment,NULL,PennController,30,_Trial_,End,1673708626365,14,3,licensed,mA,NULL
1673708672,e7fc007856c72f83289be00cf4bf28e6,PennController,22,0,Experiment,NULL,PennController,22,_Trial_,Start,1673708626369,6,3,long-distance,DIk,NULL
1673708672,e7fc007856c72f83289be00cf4bf28e6,PennController,22,0,Experiment,NULL,Text,FlashSentence,Print,NA,1673708626634,6,3,long-distance,DIk,NULL
1673708672,e7fc007856c72f83289be00cf4bf28e6,PennController,22,0,Experiment,NULL,Scale,q,Choice,5,1673708630226,6,3,long-distance,DIk,NULL
1673708672,e7fc007856c72f83289be00cf4bf28e6,PennController,22,0,Experiment,NULL,PennController,22,_Trial_,End,1673708630234,6,3,long-distance,DIk,NULL
# 13. Comments.
1673708672,e7fc007856c72f83289be00cf4bf28e6,PennController,14,0,Filler,NULL,PennController,14,_Trial_,Start,1673708630242,NULL
1673708672,e7fc007856c72f83289be00cf4bf28e6,PennController,14,0,Filler,NULL,Text,FlashSentence,Print,NA,1673708630502,NULL
1673708672,e7fc007856c72f83289be00cf4bf28e6,PennController,14,0,Filler,NULL,Scale,q,Choice,1,1673708637351,NULL
1673708672,e7fc007856c72f83289be00cf4bf28e6,PennController,14,0,Filler,NULL,PennController,14,_Trial_,End,1673708637355,NULL
# 13. Item.
# 14. Group.
# 15. License Type.
# 16. nominalizer.
# 17. Comments.
1673708672,e7fc007856c72f83289be00cf4bf28e6,PennController,32,0,Experiment,NULL,PennController,32,_Trial_,Start,1673708637358,16,3,unlicensed,mA,NULL
1673708672,e7fc007856c72f83289be00cf4bf28e6,PennController,32,0,Experiment,NULL,Text,FlashSentence,Print,NA,1673708637622,16,3,unlicensed,mA,NULL
1673708672,e7fc007856c72f83289be00cf4bf28e6,PennController,32,0,Experiment,NULL,Scale,q,Choice,1,1673708642361,16,3,unlicensed,mA,NULL
1673708672,e7fc007856c72f83289be00cf4bf28e6,PennController,32,0,Experiment,NULL,PennController,32,_Trial_,End,1673708642364,16,3,unlicensed,mA,NULL
1673708672,e7fc007856c72f83289be00cf4bf28e6,PennController,26,0,Experiment,NULL,PennController,26,_Trial_,Start,1673708642368,10,3,unlicensed,mA,NULL
1673708672,e7fc007856c72f83289be00cf4bf28e6,PennController,26,0,Experiment,NULL,Text,FlashSentence,Print,NA,1673708642628,10,3,unlicensed,mA,NULL
1673708672,e7fc007856c72f83289be00cf4bf28e6,PennController,26,0,Experiment,NULL,Scale,q,Choice,2,1673708645838,10,3,unlicensed,mA,NULL
1673708672,e7fc007856c72f83289be00cf4bf28e6,PennController,26,0,Experiment,NULL,PennController,26,_Trial_,End,1673708645842,10,3,unlicensed,mA,NULL
# 13. Comments.
1673708672,e7fc007856c72f83289be00cf4bf28e6,PennController,10,0,Filler,NULL,PennController,10,_Trial_,Start,1673708645846,NULL
1673708672,e7fc007856c72f83289be00cf4bf28e6,PennController,10,0,Filler,NULL,Text,FlashSentence,Print,NA,1673708646111,NULL
1673708672,e7fc007856c72f83289be00cf4bf28e6,PennController,10,0,Filler,NULL,Scale,q,Choice,5,1673708649018,NULL
1673708672,e7fc007856c72f83289be00cf4bf28e6,PennController,10,0,Filler,NULL,PennController,10,_Trial_,End,1673708649022,NULL
# 13. Item.
# 14. Group.
# 15. License Type.
# 16. nominalizer.
# 17. Comments.
1673708672,e7fc007856c72f83289be00cf4bf28e6,PennController,24,0,Experiment,NULL,PennController,24,_Trial_,Start,1673708649026,8,3,licensed,mA,NULL
1673708672,e7fc007856c72f83289be00cf4bf28e6,PennController,24,0,Experiment,NULL,Text,FlashSentence,Print,NA,1673708649295,8,3,licensed,mA,NULL
1673708672,e7fc007856c72f83289be00cf4bf28e6,PennController,24,0,Experiment,NULL,Scale,q,Choice,5,1673708655001,8,3,licensed,mA,NULL
1673708672,e7fc007856c72f83289be00cf4bf28e6,PennController,24,0,Experiment,NULL,PennController,24,_Trial_,End,1673708655006,8,3,licensed,mA,NULL
1673708672,e7fc007856c72f83289be00cf4bf28e6,PennController,31,0,Experiment,NULL,PennController,31,_Trial_,Start,1673708655010,15,3,long-distance,mA,NULL
1673708672,e7fc007856c72f83289be00cf4bf28e6,PennController,31,0,Experiment,NULL,Text,FlashSentence,Print,NA,1673708655281,15,3,long-distance,mA,NULL
1673708672,e7fc007856c72f83289be00cf4bf28e6,PennController,31,0,Experiment,NULL,Scale,q,Choice,1,1673708662050,15,3,long-distance,mA,NULL
1673708672,e7fc007856c72f83289be00cf4bf28e6,PennController,31,0,Experiment,NULL,PennController,31,_Trial_,End,1673708662058,15,3,long-distance,mA,NULL
# 13. Comments.
1673708672,e7fc007856c72f83289be00cf4bf28e6,PennController,13,0,Filler,NULL,PennController,13,_Trial_,Start,1673708662062,NULL
1673708672,e7fc007856c72f83289be00cf4bf28e6,PennController,13,0,Filler,NULL,Text,FlashSentence,Print,NA,1673708662324,NULL
1673708672,e7fc007856c72f83289be00cf4bf28e6,PennController,13,0,Filler,NULL,Scale,q,Choice,5,1673708668488,NULL
1673708672,e7fc007856c72f83289be00cf4bf28e6,PennController,13,0,Filler,NULL,PennController,13,_Trial_,End,1673708668495,NULL
# 13. Item.
# 14. Group.
# 15. License Type.
# 16. nominalizer.
# 17. Comments.
1673708672,e7fc007856c72f83289be00cf4bf28e6,PennController,23,0,Experiment,NULL,PennController,23,_Trial_,Start,1673708668501,7,3,unlicensed,DIk,NULL
1673708672,e7fc007856c72f83289be00cf4bf28e6,PennController,23,0,Experiment,NULL,Text,FlashSentence,Print,NA,1673708668764,7,3,unlicensed,DIk,NULL
1673708672,e7fc007856c72f83289be00cf4bf28e6,PennController,23,0,Experiment,NULL,Scale,q,Choice,1,1673708672020,7,3,unlicensed,DIk,NULL
1673708672,e7fc007856c72f83289be00cf4bf28e6,PennController,23,0,Experiment,NULL,PennController,23,_Trial_,End,1673708672023,7,3,unlicensed,DIk,NULL
#
# Results on Sat, 14 Jan 2023 17:04:30 GMT
# USER AGENT: Mozilla/5.0 (Linux; Android 9; SM-G955F) AppleWebKit/537.36 (KHTML, like Gecko) Chrome/109.0.0.0 Mobile Safari/537.36
# Design number was non-random = 3
#
# Columns below this comment are as follows:
# 1. Results reception time.
# 2. MD5 hash of participant's IP address.
# 3. Controller name.
# 4. Order number of item.
# 5. Inner element number.
# 6. Label.
# 7. Latin Square Group.
# 8. PennElementType.
# 9. PennElementName.
# 10. Parameter.
# 11. Value.
# 12. EventTime.
# 13. Comments.
1673715870,9c30698bc843870969fd76e980e309b0,PennController,1,0,Consent,NULL,PennController,0,_Trial_,Start,1673715665197,NULL
1673715870,9c30698bc843870969fd76e980e309b0,PennController,1,0,Consent,NULL,TextInput,input_name,First,,1673715681775,Unidentified
1673715870,9c30698bc843870969fd76e980e309b0,PennController,1,0,Consent,NULL,TextInput,input_name,Final,Muhammed Emin Can,1673715693098,NULL
1673715870,9c30698bc843870969fd76e980e309b0,PennController,1,0,Consent,NULL,PennController,0,_Trial_,End,1673715693102,NULL
1673715870,9c30698bc843870969fd76e980e309b0,PennController,2,0,ExpInstructions,NULL,PennController,1,_Trial_,Start,1673715693117,NULL
1673715870,9c30698bc843870969fd76e980e309b0,PennController,2,0,ExpInstructions,NULL,PennController,1,_Trial_,End,1673715697552,NULL
1673715870,9c30698bc843870969fd76e980e309b0,PennController,3,0,PracticeInstructions,NULL,PennController,2,_Trial_,Start,1673715697560,NULL
1673715870,9c30698bc843870969fd76e980e309b0,PennController,3,0,PracticeInstructions,NULL,PennController,2,_Trial_,End,1673715712583,NULL
1673715870,9c30698bc843870969fd76e980e309b0,PennController,4,0,PracticeTrial,NULL,PennController,5,_Trial_,Start,1673715712589,NULL
1673715870,9c30698bc843870969fd76e980e309b0,PennController,4,0,PracticeTrial,NULL,Text,FlashSentence,Print,NA,1673715712855,NULL
1673715870,9c30698bc843870969fd76e980e309b0,PennController,4,0,PracticeTrial,NULL,Scale,q,Choice,5,1673715722056,NULL
1673715870,9c30698bc843870969fd76e980e309b0,PennController,4,0,PracticeTrial,NULL,PennController,5,_Trial_,End,1673715722061,NULL
1673715870,9c30698bc843870969fd76e980e309b0,PennController,5,0,PracticeTrial,NULL,PennController,6,_Trial_,Start,1673715722065,NULL
1673715870,9c30698bc843870969fd76e980e309b0,PennController,5,0,PracticeTrial,NULL,Text,FlashSentence,Print,NA,1673715722319,NULL
1673715870,9c30698bc843870969fd76e980e309b0,PennController,5,0,PracticeTrial,NULL,Scale,q,Choice,2,1673715732074,NULL
1673715870,9c30698bc843870969fd76e980e309b0,PennController,5,0,PracticeTrial,NULL,PennController,6,_Trial_,End,1673715732082,NULL
1673715870,9c30698bc843870969fd76e980e309b0,PennController,6,0,PracticeTrial,NULL,PennController,7,_Trial_,Start,1673715732088,NULL
1673715870,9c30698bc843870969fd76e980e309b0,PennController,6,0,PracticeTrial,NULL,Text,FlashSentence,Print,NA,1673715732347,NULL
1673715870,9c30698bc843870969fd76e980e309b0,PennController,6,0,PracticeTrial,NULL,Scale,q,Choice,1,1673715741819,NULL
1673715870,9c30698bc843870969fd76e980e309b0,PennController,6,0,PracticeTrial,NULL,PennController,7,_Trial_,End,1673715741826,NULL
1673715870,9c30698bc843870969fd76e980e309b0,PennController,7,0,expstarts,NULL,PennController,3,_Trial_,Start,1673715741833,NULL
1673715870,9c30698bc843870969fd76e980e309b0,PennController,7,0,expstarts,NULL,PennController,3,_Trial_,End,1673715746853,NULL
# 13. Item.
# 14. Group.
# 15. License Type.
# 16. nominalizer.
# 17. Comments.
1673715870,9c30698bc843870969fd76e980e309b0,PennController,33,0,Experiment,NULL,PennController,33,_Trial_,Start,1673715746857,17,4,long-distance,DIk,NULL
1673715870,9c30698bc843870969fd76e980e309b0,PennController,33,0,Experiment,NULL,Text,FlashSentence,Print,NA,1673715747114,17,4,long-distance,DIk,NULL
1673715870,9c30698bc843870969fd76e980e309b0,PennController,33,0,Experiment,NULL,Scale,q,Choice,2,1673715753420,17,4,long-distance,DIk,NULL
1673715870,9c30698bc843870969fd76e980e309b0,PennController,33,0,Experiment,NULL,PennController,33,_Trial_,End,1673715753427,17,4,long-distance,DIk,NULL
1673715870,9c30698bc843870969fd76e980e309b0,PennController,17,0,Experiment,NULL,PennController,17,_Trial_,Start,1673715753434,1,4,licensed,mA,NULL
1673715870,9c30698bc843870969fd76e980e309b0,PennController,17,0,Experiment,NULL,Text,FlashSentence,Print,NA,1673715753696,1,4,licensed,mA,NULL
1673715870,9c30698bc843870969fd76e980e309b0,PennController,17,0,Experiment,NULL,Scale,q,Choice,1,1673715758091,1,4,licensed,mA,NULL
1673715870,9c30698bc843870969fd76e980e309b0,PennController,17,0,Experiment,NULL,PennController,17,_Trial_,End,1673715758097,1,4,licensed,mA,NULL
# 13. Comments.
1673715870,9c30698bc843870969fd76e980e309b0,PennController,13,0,Filler,NULL,PennController,13,_Trial_,Start,1673715758104,NULL
1673715870,9c30698bc843870969fd76e980e309b0,PennController,13,0,Filler,NULL,Text,FlashSentence,Print,NA,1673715758381,NULL
1673715870,9c30698bc843870969fd76e980e309b0,PennController,13,0,Filler,NULL,Scale,q,Choice,5,1673715762801,NULL
1673715870,9c30698bc843870969fd76e980e309b0,PennController,13,0,Filler,NULL,PennController,13,_Trial_,End,1673715762807,NULL
# 13. Item.
# 14. Group.
# 15. License Type.
# 16. nominalizer.
# 17. Comments.
1673715870,9c30698bc843870969fd76e980e309b0,PennController,28,0,Experiment,NULL,PennController,28,_Trial_,Start,1673715762813,12,4,unlicensed,DIk,NULL
1673715870,9c30698bc843870969fd76e980e309b0,PennController,28,0,Experiment,NULL,Text,FlashSentence,Print,NA,1673715763073,12,4,unlicensed,DIk,NULL
1673715870,9c30698bc843870969fd76e980e309b0,PennController,28,0,Experiment,NULL,Scale,q,Choice,1,1673715766548,12,4,unlicensed,DIk,NULL
1673715870,9c30698bc843870969fd76e980e309b0,PennController,28,0,Experiment,NULL,PennController,28,_Trial_,End,1673715766561,12,4,unlicensed,DIk,NULL
1673715870,9c30698bc843870969fd76e980e309b0,PennController,26,0,Experiment,NULL,PennController,26,_Trial_,Start,1673715766567,10,4,licensed,DIk,NULL
1673715870,9c30698bc843870969fd76e980e309b0,PennController,26,0,Experiment,NULL,Text,FlashSentence,Print,NA,1673715766824,10,4,licensed,DIk,NULL
1673715870,9c30698bc843870969fd76e980e309b0,PennController,26,0,Experiment,NULL,Scale,q,Choice,3,1673715770091,10,4,licensed,DIk,NULL
1673715870,9c30698bc843870969fd76e980e309b0,PennController,26,0,Experiment,NULL,PennController,26,_Trial_,End,1673715770098,10,4,licensed,DIk,NULL
# 13. Comments.
1673715870,9c30698bc843870969fd76e980e309b0,PennController,12,0,Filler,NULL,PennController,12,_Trial_,Start,1673715770104,NULL
1673715870,9c30698bc843870969fd76e980e309b0,PennController,12,0,Filler,NULL,Text,FlashSentence,Print,NA,1673715770362,NULL
1673715870,9c30698bc843870969fd76e980e309b0,PennController,12,0,Filler,NULL,Scale,q,Choice,2,1673715775571,NULL
1673715870,9c30698bc843870969fd76e980e309b0,PennController,12,0,Filler,NULL,PennController,12,_Trial_,End,1673715775577,NULL
# 13. Item.
# 14. Group.
# 15. License Type.
# 16. nominalizer.
# 17. Comments.
1673715870,9c30698bc843870969fd76e980e309b0,PennController,29,0,Experiment,NULL,PennController,29,_Trial_,Start,1673715775583,13,4,licensed,mA,NULL
1673715870,9c30698bc843870969fd76e980e309b0,PennController,29,0,Experiment,NULL,Text,FlashSentence,Print,NA,1673715775841,13,4,licensed,mA,NULL
1673715870,9c30698bc843870969fd76e980e309b0,PennController,29,0,Experiment,NULL,Scale,q,Choice,5,1673715780402,13,4,licensed,mA,NULL
1673715870,9c30698bc843870969fd76e980e309b0,PennController,29,0,Experiment,NULL,PennController,29,_Trial_,End,1673715780408,13,4,licensed,mA,NULL
1673715870,9c30698bc843870969fd76e980e309b0,PennController,31,0,Experiment,NULL,PennController,31,_Trial_,Start,1673715780415,15,4,unlicensed,mA,NULL
1673715870,9c30698bc843870969fd76e980e309b0,PennController,31,0,Experiment,NULL,Text,FlashSentence,Print,NA,1673715780671,15,4,unlicensed,mA,NULL
1673715870,9c30698bc843870969fd76e980e309b0,PennController,31,0,Experiment,NULL,Scale,q,Choice,1,1673715785755,15,4,unlicensed,mA,NULL
1673715870,9c30698bc843870969fd76e980e309b0,PennController,31,0,Experiment,NULL,PennController,31,_Trial_,End,1673715785764,15,4,unlicensed,mA,NULL
# 13. Comments.
1673715870,9c30698bc843870969fd76e980e309b0,PennController,16,0,Filler,NULL,PennController,16,_Trial_,Start,1673715785770,NULL
1673715870,9c30698bc843870969fd76e980e309b0,PennController,16,0,Filler,NULL,Text,FlashSentence,Print,NA,1673715786035,NULL
1673715870,9c30698bc843870969fd76e980e309b0,PennController,16,0,Filler,NULL,Scale,q,Choice,5,1673715789475,NULL
1673715870,9c30698bc843870969fd76e980e309b0,PennController,16,0,Filler,NULL,PennController,16,_Trial_,End,1673715789482,NULL
# 13. Item.
# 14. Group.
# 15. License Type.
# 16. nominalizer.
# 17. Comments.
1673715870,9c30698bc843870969fd76e980e309b0,PennController,32,0,Experiment,NULL,PennController,32,_Trial_,Start,1673715789488,16,4,licensed,DIk,NULL
1673715870,9c30698bc843870969fd76e980e309b0,PennController,32,0,Experiment,NULL,Text,FlashSentence,Print,NA,1673715789749,16,4,licensed,DIk,NULL
1673715870,9c30698bc843870969fd76e980e309b0,PennController,32,0,Experiment,NULL,Scale,q,Choice,4,1673715793211,16,4,licensed,DIk,NULL
1673715870,9c30698bc843870969fd76e980e309b0,PennController,32,0,Experiment,NULL,PennController,32,_Trial_,End,1673715793217,16,4,licensed,DIk,NULL
1673715870,9c30698bc843870969fd76e980e309b0,PennController,25,0,Experiment,NULL,PennController,25,_Trial_,Start,1673715793224,9,4,unlicensed,mA,NULL
1673715870,9c30698bc843870969fd76e980e309b0,PennController,25,0,Experiment,NULL,Text,FlashSentence,Print,NA,1673715793482,9,4,unlicensed,mA,NULL
1673715870,9c30698bc843870969fd76e980e309b0,PennController,25,0,Experiment,NULL,Scale,q,Choice,1,1673715797171,9,4,unlicensed,mA,NULL
1673715870,9c30698bc843870969fd76e980e309b0,PennController,25,0,Experiment,NULL,PennController,25,_Trial_,End,1673715797178,9,4,unlicensed,mA,NULL
# 13. Comments.
1673715870,9c30698bc843870969fd76e980e309b0,PennController,9,0,Filler,NULL,PennController,9,_Trial_,Start,1673715797185,NULL
1673715870,9c30698bc843870969fd76e980e309b0,PennController,9,0,Filler,NULL,Text,FlashSentence,Print,NA,1673715797445,NULL
1673715870,9c30698bc843870969fd76e980e309b0,PennController,9,0,Filler,NULL,Scale,q,Choice,2,1673715803339,NULL
1673715870,9c30698bc843870969fd76e980e309b0,PennController,9,0,Filler,NULL,PennController,9,_Trial_,End,1673715803345,NULL
# 13. Item.
# 14. Group.
# 15. License Type.
# 16. nominalizer.
# 17. Comments.
1673715870,9c30698bc843870969fd76e980e309b0,PennController,19,0,Experiment,NULL,PennController,19,_Trial_,Start,1673715803352,3,4,unlicensed,mA,NULL
1673715870,9c30698bc843870969fd76e980e309b0,PennController,19,0,Experiment,NULL,Text,FlashSentence,Print,NA,1673715803613,3,4,unlicensed,mA,NULL
1673715870,9c30698bc843870969fd76e980e309b0,PennController,19,0,Experiment,NULL,Scale,q,Choice,1,1673715807123,3,4,unlicensed,mA,NULL
1673715870,9c30698bc843870969fd76e980e309b0,PennController,19,0,Experiment,NULL,PennController,19,_Trial_,End,1673715807129,3,4,unlicensed,mA,NULL
1673715870,9c30698bc843870969fd76e980e309b0,PennController,20,0,Experiment,NULL,PennController,20,_Trial_,Start,1673715807135,4,4,licensed,DIk,NULL
1673715870,9c30698bc843870969fd76e980e309b0,PennController,20,0,Experiment,NULL,Text,FlashSentence,Print,NA,1673715807413,4,4,licensed,DIk,NULL
1673715870,9c30698bc843870969fd76e980e309b0,PennController,20,0,Experiment,NULL,Scale,q,Choice,3,1673715811043,4,4,licensed,DIk,NULL
1673715870,9c30698bc843870969fd76e980e309b0,PennController,20,0,Experiment,NULL,PennController,20,_Trial_,End,1673715811049,4,4,licensed,DIk,NULL
# 13. Comments.
1673715870,9c30698bc843870969fd76e980e309b0,PennController,8,0,Filler,NULL,PennController,8,_Trial_,Start,1673715811055,NULL
1673715870,9c30698bc843870969fd76e980e309b0,PennController,8,0,Filler,NULL,Text,FlashSentence,Print,NA,1673715811316,NULL
1673715870,9c30698bc843870969fd76e980e309b0,PennController,8,0,Filler,NULL,Scale,q,Choice,4,1673715815563,NULL
1673715870,9c30698bc843870969fd76e980e309b0,PennController,8,0,Filler,NULL,PennController,8,_Trial_,End,1673715815569,NULL
# 13. Item.
# 14. Group.
# 15. License Type.
# 16. nominalizer.
# 17. Comments.
1673715870,9c30698bc843870969fd76e980e309b0,PennController,27,0,Experiment,NULL,PennController,27,_Trial_,Start,1673715815575,11,4,long-distance,DIk,NULL
1673715870,9c30698bc843870969fd76e980e309b0,PennController,27,0,Experiment,NULL,Text,FlashSentence,Print,NA,1673715815833,11,4,long-distance,DIk,NULL
1673715870,9c30698bc843870969fd76e980e309b0,PennController,27,0,Experiment,NULL,Scale,q,Choice,1,1673715819347,11,4,long-distance,DIk,NULL
1673715870,9c30698bc843870969fd76e980e309b0,PennController,27,0,Experiment,NULL,PennController,27,_Trial_,End,1673715819353,11,4,long-distance,DIk,NULL
1673715870,9c30698bc843870969fd76e980e309b0,PennController,22,0,Experiment,NULL,PennController,22,_Trial_,Start,1673715819359,6,4,unlicensed,DIk,NULL
1673715870,9c30698bc843870969fd76e980e309b0,PennController,22,0,Experiment,NULL,Text,FlashSentence,Print,NA,1673715819618,6,4,unlicensed,DIk,NULL
1673715870,9c30698bc843870969fd76e980e309b0,PennController,22,0,Experiment,NULL,Scale,q,Choice,1,1673715822364,6,4,unlicensed,DIk,NULL
1673715870,9c30698bc843870969fd76e980e309b0,PennController,22,0,Experiment,NULL,PennController,22,_Trial_,End,1673715822370,6,4,unlicensed,DIk,NULL
# 13. Comments.
1673715870,9c30698bc843870969fd76e980e309b0,PennController,10,0,Filler,NULL,PennController,10,_Trial_,Start,1673715822376,NULL
1673715870,9c30698bc843870969fd76e980e309b0,PennController,10,0,Filler,NULL,Text,FlashSentence,Print,NA,1673715822637,NULL
1673715870,9c30698bc843870969fd76e980e309b0,PennController,10,0,Filler,NULL,Scale,q,Choice,4,1673715827195,NULL
1673715870,9c30698bc843870969fd76e980e309b0,PennController,10,0,Filler,NULL,PennController,10,_Trial_,End,1673715827202,NULL
# 13. Item.
# 14. Group.
# 15. License Type.
# 16. nominalizer.
# 17. Comments.
1673715870,9c30698bc843870969fd76e980e309b0,PennController,18,0,Experiment,NULL,PennController,18,_Trial_,Start,1673715827207,2,4,long-distance,mA,NULL
1673715870,9c30698bc843870969fd76e980e309b0,PennController,18,0,Experiment,NULL,Text,FlashSentence,Print,NA,1673715827462,2,4,long-distance,mA,NULL
1673715870,9c30698bc843870969fd76e980e309b0,PennController,18,0,Experiment,NULL,Scale,q,Choice,1,1673715832546,2,4,long-distance,mA,NULL
1673715870,9c30698bc843870969fd76e980e309b0,PennController,18,0,Experiment,NULL,PennController,18,_Trial_,End,1673715832553,2,4,long-distance,mA,NULL
1673715870,9c30698bc843870969fd76e980e309b0,PennController,23,0,Experiment,NULL,PennController,23,_Trial_,Start,1673715832559,7,4,licensed,mA,NULL
1673715870,9c30698bc843870969fd76e980e309b0,PennController,23,0,Experiment,NULL,Text,FlashSentence,Print,NA,1673715832818,7,4,licensed,mA,NULL
1673715870,9c30698bc843870969fd76e980e309b0,PennController,23,0,Experiment,NULL,Scale,q,Choice,2,1673715836787,7,4,licensed,mA,NULL
1673715870,9c30698bc843870969fd76e980e309b0,PennController,23,0,Experiment,NULL,PennController,23,_Trial_,End,1673715836794,7,4,licensed,mA,NULL
# 13. Comments.
1673715870,9c30698bc843870969fd76e980e309b0,PennController,15,0,Filler,NULL,PennController,15,_Trial_,Start,1673715836799,NULL
1673715870,9c30698bc843870969fd76e980e309b0,PennController,15,0,Filler,NULL,Text,FlashSentence,Print,NA,1673715837074,NULL
1673715870,9c30698bc843870969fd76e980e309b0,PennController,15,0,Filler,NULL,Scale,q,Choice,1,1673715842516,NULL
1673715870,9c30698bc843870969fd76e980e309b0,PennController,15,0,Filler,NULL,PennController,15,_Trial_,End,1673715842523,NULL
# 13. Item.
# 14. Group.
# 15. License Type.
# 16. nominalizer.
# 17. Comments.
1673715870,9c30698bc843870969fd76e980e309b0,PennController,30,0,Experiment,NULL,PennController,30,_Trial_,Start,1673715842528,14,4,long-distance,mA,NULL
1673715870,9c30698bc843870969fd76e980e309b0,PennController,30,0,Experiment,NULL,Text,FlashSentence,Print,NA,1673715842789,14,4,long-distance,mA,NULL
1673715870,9c30698bc843870969fd76e980e309b0,PennController,30,0,Experiment,NULL,Scale,q,Choice,2,1673715847482,14,4,long-distance,mA,NULL
1673715870,9c30698bc843870969fd76e980e309b0,PennController,30,0,Experiment,NULL,PennController,30,_Trial_,End,1673715847489,14,4,long-distance,mA,NULL
1673715870,9c30698bc843870969fd76e980e309b0,PennController,21,0,Experiment,NULL,PennController,21,_Trial_,Start,1673715847495,5,4,long-distance,DIk,NULL
1673715870,9c30698bc843870969fd76e980e309b0,PennController,21,0,Experiment,NULL,Text,FlashSentence,Print,NA,1673715847755,5,4,long-distance,DIk,NULL
1673715870,9c30698bc843870969fd76e980e309b0,PennController,21,0,Experiment,NULL,Scale,q,Choice,1,1673715850970,5,4,long-distance,DIk,NULL
1673715870,9c30698bc843870969fd76e980e309b0,PennController,21,0,Experiment,NULL,PennController,21,_Trial_,End,1673715850977,5,4,long-distance,DIk,NULL
# 13. Comments.
1673715870,9c30698bc843870969fd76e980e309b0,PennController,14,0,Filler,NULL,PennController,14,_Trial_,Start,1673715850983,NULL
1673715870,9c30698bc843870969fd76e980e309b0,PennController,14,0,Filler,NULL,Text,FlashSentence,Print,NA,1673715851241,NULL
1673715870,9c30698bc843870969fd76e980e309b0,PennController,14,0,Filler,NULL,Scale,q,Choice,1,1673715855613,NULL
1673715870,9c30698bc843870969fd76e980e309b0,PennController,14,0,Filler,NULL,PennController,14,_Trial_,End,1673715855621,NULL
# 13. Item.
# 14. Group.
# 15. License Type.
# 16. nominalizer.
# 17. Comments.
1673715870,9c30698bc843870969fd76e980e309b0,PennController,24,0,Experiment,NULL,PennController,24,_Trial_,Start,1673715855627,8,4,long-distance,mA,NULL
1673715870,9c30698bc843870969fd76e980e309b0,PennController,24,0,Experiment,NULL,Text,FlashSentence,Print,NA,1673715855888,8,4,long-distance,mA,NULL
1673715870,9c30698bc843870969fd76e980e309b0,PennController,24,0,Experiment,NULL,Scale,q,Choice,1,1673715859578,8,4,long-distance,mA,NULL
1673715870,9c30698bc843870969fd76e980e309b0,PennController,24,0,Experiment,NULL,PennController,24,_Trial_,End,1673715859585,8,4,long-distance,mA,NULL
1673715870,9c30698bc843870969fd76e980e309b0,PennController,34,0,Experiment,NULL,PennController,34,_Trial_,Start,1673715859590,18,4,unlicensed,DIk,NULL
1673715870,9c30698bc843870969fd76e980e309b0,PennController,34,0,Experiment,NULL,Text,FlashSentence,Print,NA,1673715859850,18,4,unlicensed,DIk,NULL
1673715870,9c30698bc843870969fd76e980e309b0,PennController,34,0,Experiment,NULL,Scale,q,Choice,1,1673715862812,18,4,unlicensed,DIk,NULL
1673715870,9c30698bc843870969fd76e980e309b0,PennController,34,0,Experiment,NULL,PennController,34,_Trial_,End,1673715862818,18,4,unlicensed,DIk,NULL
# 13. Comments.
1673715870,9c30698bc843870969fd76e980e309b0,PennController,11,0,Filler,NULL,PennController,11,_Trial_,Start,1673715862824,NULL
1673715870,9c30698bc843870969fd76e980e309b0,PennController,11,0,Filler,NULL,Text,FlashSentence,Print,NA,1673715863084,NULL
1673715870,9c30698bc843870969fd76e980e309b0,PennController,11,0,Filler,NULL,Scale,q,Choice,1,1673715870538,NULL
1673715870,9c30698bc843870969fd76e980e309b0,PennController,11,0,Filler,NULL,PennController,11,_Trial_,End,1673715870544,NULL
#
# Results on Sat, 14 Jan 2023 17:04:40 GMT
# USER AGENT: Mozilla/5.0 (Linux; Android 10; MI 8) AppleWebKit/537.36 (KHTML, like Gecko) Chrome/108.0.0.0 Mobile Safari/537.36
# Design number was non-random = 3
#
# Columns below this comment are as follows:
# 1. Results reception time.
# 2. MD5 hash of participant's IP address.
# 3. Controller name.
# 4. Order number of item.
# 5. Inner element number.
# 6. Label.
# 7. Latin Square Group.
# 8. PennElementType.
# 9. PennElementName.
# 10. Parameter.
# 11. Value.
# 12. EventTime.
# 13. Comments.
1673715880,74f9c24bd4311d967c2631ce1f76c532,PennController,1,0,Consent,NULL,PennController,0,_Trial_,Start,1673715453787,NULL
1673715880,74f9c24bd4311d967c2631ce1f76c532,PennController,1,0,Consent,NULL,TextInput,input_name,First,,1673715678687,Unidentified
1673715880,74f9c24bd4311d967c2631ce1f76c532,PennController,1,0,Consent,NULL,TextInput,input_name,Final,Hira Yavuz,1673715682058,NULL
1673715880,74f9c24bd4311d967c2631ce1f76c532,PennController,1,0,Consent,NULL,PennController,0,_Trial_,End,1673715682061,NULL
1673715880,74f9c24bd4311d967c2631ce1f76c532,PennController,2,0,ExpInstructions,NULL,PennController,1,_Trial_,Start,1673715682076,NULL
1673715880,74f9c24bd4311d967c2631ce1f76c532,PennController,2,0,ExpInstructions,NULL,PennController,1,_Trial_,End,1673715690587,NULL
1673715880,74f9c24bd4311d967c2631ce1f76c532,PennController,3,0,PracticeInstructions,NULL,PennController,2,_Trial_,Start,1673715690598,NULL
1673715880,74f9c24bd4311d967c2631ce1f76c532,PennController,3,0,PracticeInstructions,NULL,PennController,2,_Trial_,End,1673715699422,NULL
1673715880,74f9c24bd4311d967c2631ce1f76c532,PennController,4,0,PracticeTrial,NULL,PennController,5,_Trial_,Start,1673715699435,NULL
1673715880,74f9c24bd4311d967c2631ce1f76c532,PennController,4,0,PracticeTrial,NULL,Text,FlashSentence,Print,NA,1673715699708,NULL
1673715880,74f9c24bd4311d967c2631ce1f76c532,PennController,4,0,PracticeTrial,NULL,Scale,q,Choice,5,1673715704972,NULL
1673715880,74f9c24bd4311d967c2631ce1f76c532,PennController,4,0,PracticeTrial,NULL,PennController,5,_Trial_,End,1673715704983,NULL
1673715880,74f9c24bd4311d967c2631ce1f76c532,PennController,6,0,PracticeTrial,NULL,PennController,7,_Trial_,Start,1673715704991,NULL
1673715880,74f9c24bd4311d967c2631ce1f76c532,PennController,6,0,PracticeTrial,NULL,Text,FlashSentence,Print,NA,1673715705254,NULL
1673715880,74f9c24bd4311d967c2631ce1f76c532,PennController,6,0,PracticeTrial,NULL,Scale,q,Choice,3,1673715719842,NULL
1673715880,74f9c24bd4311d967c2631ce1f76c532,PennController,6,0,PracticeTrial,NULL,PennController,7,_Trial_,End,1673715719855,NULL
1673715880,74f9c24bd4311d967c2631ce1f76c532,PennController,5,0,PracticeTrial,NULL,PennController,6,_Trial_,Start,1673715719863,NULL
1673715880,74f9c24bd4311d967c2631ce1f76c532,PennController,5,0,PracticeTrial,NULL,Text,FlashSentence,Print,NA,1673715720122,NULL
1673715880,74f9c24bd4311d967c2631ce1f76c532,PennController,5,0,PracticeTrial,NULL,Scale,q,Choice,2,1673715733801,NULL
1673715880,74f9c24bd4311d967c2631ce1f76c532,PennController,5,0,PracticeTrial,NULL,PennController,6,_Trial_,End,1673715733813,NULL
1673715880,74f9c24bd4311d967c2631ce1f76c532,PennController,7,0,expstarts,NULL,PennController,3,_Trial_,Start,1673715733823,NULL
1673715880,74f9c24bd4311d967c2631ce1f76c532,PennController,7,0,expstarts,NULL,PennController,3,_Trial_,End,1673715738852,NULL
# 13. Item.
# 14. Group.
# 15. License Type.
# 16. nominalizer.
# 17. Comments.
1673715880,74f9c24bd4311d967c2631ce1f76c532,PennController,17,0,Experiment,NULL,PennController,17,_Trial_,Start,1673715738865,1,4,licensed,mA,NULL
1673715880,74f9c24bd4311d967c2631ce1f76c532,PennController,17,0,Experiment,NULL,Text,FlashSentence,Print,NA,1673715739135,1,4,licensed,mA,NULL
1673715880,74f9c24bd4311d967c2631ce1f76c532,PennController,17,0,Experiment,NULL,Scale,q,Choice,1,1673715746540,1,4,licensed,mA,NULL
1673715880,74f9c24bd4311d967c2631ce1f76c532,PennController,17,0,Experiment,NULL,PennController,17,_Trial_,End,1673715746547,1,4,licensed,mA,NULL
# 13. Comments.
1673715880,74f9c24bd4311d967c2631ce1f76c532,PennController,15,0,Filler,NULL,PennController,15,_Trial_,Start,1673715746553,NULL
1673715880,74f9c24bd4311d967c2631ce1f76c532,PennController,15,0,Filler,NULL,Text,FlashSentence,Print,NA,1673715746819,NULL
1673715880,74f9c24bd4311d967c2631ce1f76c532,PennController,15,0,Filler,NULL,Scale,q,Choice,1,1673715751258,NULL
1673715880,74f9c24bd4311d967c2631ce1f76c532,PennController,15,0,Filler,NULL,PennController,15,_Trial_,End,1673715751271,NULL
# 13. Item.
# 14. Group.
# 15. License Type.
# 16. nominalizer.
# 17. Comments.
1673715880,74f9c24bd4311d967c2631ce1f76c532,PennController,34,0,Experiment,NULL,PennController,34,_Trial_,Start,1673715751281,18,4,unlicensed,DIk,NULL
1673715880,74f9c24bd4311d967c2631ce1f76c532,PennController,34,0,Experiment,NULL,Text,FlashSentence,Print,NA,1673715751547,18,4,unlicensed,DIk,NULL
1673715880,74f9c24bd4311d967c2631ce1f76c532,PennController,34,0,Experiment,NULL,Scale,q,Choice,2,1673715757594,18,4,unlicensed,DIk,NULL
1673715880,74f9c24bd4311d967c2631ce1f76c532,PennController,34,0,Experiment,NULL,PennController,34,_Trial_,End,1673715757605,18,4,unlicensed,DIk,NULL
1673715880,74f9c24bd4311d967c2631ce1f76c532,PennController,26,0,Experiment,NULL,PennController,26,_Trial_,Start,1673715757616,10,4,licensed,DIk,NULL
1673715880,74f9c24bd4311d967c2631ce1f76c532,PennController,26,0,Experiment,NULL,Text,FlashSentence,Print,NA,1673715757879,10,4,licensed,DIk,NULL
1673715880,74f9c24bd4311d967c2631ce1f76c532,PennController,26,0,Experiment,NULL,Scale,q,Choice,4,1673715760536,10,4,licensed,DIk,NULL
1673715880,74f9c24bd4311d967c2631ce1f76c532,PennController,26,0,Experiment,NULL,PennController,26,_Trial_,End,1673715760549,10,4,licensed,DIk,NULL
# 13. Comments.
1673715880,74f9c24bd4311d967c2631ce1f76c532,PennController,9,0,Filler,NULL,PennController,9,_Trial_,Start,1673715760560,NULL
1673715880,74f9c24bd4311d967c2631ce1f76c532,PennController,9,0,Filler,NULL,Text,FlashSentence,Print,NA,1673715760830,NULL
1673715880,74f9c24bd4311d967c2631ce1f76c532,PennController,9,0,Filler,NULL,Scale,q,Choice,2,1673715767074,NULL
1673715880,74f9c24bd4311d967c2631ce1f76c532,PennController,9,0,Filler,NULL,PennController,9,_Trial_,End,1673715767086,NULL
# 13. Item.
# 14. Group.
# 15. License Type.
# 16. nominalizer.
# 17. Comments.
1673715880,74f9c24bd4311d967c2631ce1f76c532,PennController,24,0,Experiment,NULL,PennController,24,_Trial_,Start,1673715767097,8,4,long-distance,mA,NULL
1673715880,74f9c24bd4311d967c2631ce1f76c532,PennController,24,0,Experiment,NULL,Text,FlashSentence,Print,NA,1673715767364,8,4,long-distance,mA,NULL
1673715880,74f9c24bd4311d967c2631ce1f76c532,PennController,24,0,Experiment,NULL,Scale,q,Choice,1,1673715770804,8,4,long-distance,mA,NULL
1673715880,74f9c24bd4311d967c2631ce1f76c532,PennController,24,0,Experiment,NULL,PennController,24,_Trial_,End,1673715770816,8,4,long-distance,mA,NULL
1673715880,74f9c24bd4311d967c2631ce1f76c532,PennController,23,0,Experiment,NULL,PennController,23,_Trial_,Start,1673715770824,7,4,licensed,mA,NULL
1673715880,74f9c24bd4311d967c2631ce1f76c532,PennController,23,0,Experiment,NULL,Text,FlashSentence,Print,NA,1673715771096,7,4,licensed,mA,NULL
1673715880,74f9c24bd4311d967c2631ce1f76c532,PennController,23,0,Experiment,NULL,Scale,q,Choice,1,1673715779122,7,4,licensed,mA,NULL
1673715880,74f9c24bd4311d967c2631ce1f76c532,PennController,23,0,Experiment,NULL,PennController,23,_Trial_,End,1673715779132,7,4,licensed,mA,NULL
# 13. Comments.
1673715880,74f9c24bd4311d967c2631ce1f76c532,PennController,12,0,Filler,NULL,PennController,12,_Trial_,Start,1673715779141,NULL
1673715880,74f9c24bd4311d967c2631ce1f76c532,PennController,12,0,Filler,NULL,Text,FlashSentence,Print,NA,1673715779404,NULL
1673715880,74f9c24bd4311d967c2631ce1f76c532,PennController,12,0,Filler,NULL,Scale,q,Choice,3,1673715800931,NULL
1673715880,74f9c24bd4311d967c2631ce1f76c532,PennController,12,0,Filler,NULL,PennController,12,_Trial_,End,1673715800942,NULL
# 13. Item.
# 14. Group.
# 15. License Type.
# 16. nominalizer.
# 17. Comments.
1673715880,74f9c24bd4311d967c2631ce1f76c532,PennController,21,0,Experiment,NULL,PennController,21,_Trial_,Start,1673715800955,5,4,long-distance,DIk,NULL
1673715880,74f9c24bd4311d967c2631ce1f76c532,PennController,21,0,Experiment,NULL,Text,FlashSentence,Print,NA,1673715801223,5,4,long-distance,DIk,NULL
1673715880,74f9c24bd4311d967c2631ce1f76c532,PennController,21,0,Experiment,NULL,Scale,q,Choice,4,1673715803513,5,4,long-distance,DIk,NULL
1673715880,74f9c24bd4311d967c2631ce1f76c532,PennController,21,0,Experiment,NULL,PennController,21,_Trial_,End,1673715803522,5,4,long-distance,DIk,NULL
1673715880,74f9c24bd4311d967c2631ce1f76c532,PennController,28,0,Experiment,NULL,PennController,28,_Trial_,Start,1673715803530,12,4,unlicensed,DIk,NULL
1673715880,74f9c24bd4311d967c2631ce1f76c532,PennController,28,0,Experiment,NULL,Text,FlashSentence,Print,NA,1673715803800,12,4,unlicensed,DIk,NULL
1673715880,74f9c24bd4311d967c2631ce1f76c532,PennController,28,0,Experiment,NULL,Scale,q,Choice,2,1673715806002,12,4,unlicensed,DIk,NULL
1673715880,74f9c24bd4311d967c2631ce1f76c532,PennController,28,0,Experiment,NULL,PennController,28,_Trial_,End,1673715806013,12,4,unlicensed,DIk,NULL
# 13. Comments.
1673715880,74f9c24bd4311d967c2631ce1f76c532,PennController,11,0,Filler,NULL,PennController,11,_Trial_,Start,1673715806021,NULL
1673715880,74f9c24bd4311d967c2631ce1f76c532,PennController,11,0,Filler,NULL,Text,FlashSentence,Print,NA,1673715806290,NULL
1673715880,74f9c24bd4311d967c2631ce1f76c532,PennController,11,0,Filler,NULL,Scale,q,Choice,1,1673715809986,NULL
1673715880,74f9c24bd4311d967c2631ce1f76c532,PennController,11,0,Filler,NULL,PennController,11,_Trial_,End,1673715809997,NULL
# 13. Item.
# 14. Group.
# 15. License Type.
# 16. nominalizer.
# 17. Comments.
1673715880,74f9c24bd4311d967c2631ce1f76c532,PennController,25,0,Experiment,NULL,PennController,25,_Trial_,Start,1673715810005,9,4,unlicensed,mA,NULL
1673715880,74f9c24bd4311d967c2631ce1f76c532,PennController,25,0,Experiment,NULL,Text,FlashSentence,Print,NA,1673715810274,9,4,unlicensed,mA,NULL
1673715880,74f9c24bd4311d967c2631ce1f76c532,PennController,25,0,Experiment,NULL,Scale,q,Choice,1,1673715813811,9,4,unlicensed,mA,NULL
1673715880,74f9c24bd4311d967c2631ce1f76c532,PennController,25,0,Experiment,NULL,PennController,25,_Trial_,End,1673715813821,9,4,unlicensed,mA,NULL
1673715880,74f9c24bd4311d967c2631ce1f76c532,PennController,30,0,Experiment,NULL,PennController,30,_Trial_,Start,1673715813831,14,4,long-distance,mA,NULL
1673715880,74f9c24bd4311d967c2631ce1f76c532,PennController,30,0,Experiment,NULL,Text,FlashSentence,Print,NA,1673715814102,14,4,long-distance,mA,NULL
1673715880,74f9c24bd4311d967c2631ce1f76c532,PennController,30,0,Experiment,NULL,Scale,q,Choice,1,1673715824861,14,4,long-distance,mA,NULL
1673715880,74f9c24bd4311d967c2631ce1f76c532,PennController,30,0,Experiment,NULL,PennController,30,_Trial_,End,1673715824874,14,4,long-distance,mA,NULL
# 13. Comments.
1673715880,74f9c24bd4311d967c2631ce1f76c532,PennController,16,0,Filler,NULL,PennController,16,_Trial_,Start,1673715824885,NULL
1673715880,74f9c24bd4311d967c2631ce1f76c532,PennController,16,0,Filler,NULL,Text,FlashSentence,Print,NA,1673715825152,NULL
1673715880,74f9c24bd4311d967c2631ce1f76c532,PennController,16,0,Filler,NULL,Scale,q,Choice,4,1673715830483,NULL
1673715880,74f9c24bd4311d967c2631ce1f76c532,PennController,16,0,Filler,NULL,PennController,16,_Trial_,End,1673715830495,NULL
# 13. Item.
# 14. Group.
# 15. License Type.
# 16. nominalizer.
# 17. Comments.
1673715880,74f9c24bd4311d967c2631ce1f76c532,PennController,31,0,Experiment,NULL,PennController,31,_Trial_,Start,1673715830502,15,4,unlicensed,mA,NULL
1673715880,74f9c24bd4311d967c2631ce1f76c532,PennController,31,0,Experiment,NULL,Text,FlashSentence,Print,NA,1673715830773,15,4,unlicensed,mA,NULL
1673715880,74f9c24bd4311d967c2631ce1f76c532,PennController,31,0,Experiment,NULL,Scale,q,Choice,1,1673715834231,15,4,unlicensed,mA,NULL
1673715880,74f9c24bd4311d967c2631ce1f76c532,PennController,31,0,Experiment,NULL,PennController,31,_Trial_,End,1673715834244,15,4,unlicensed,mA,NULL
1673715880,74f9c24bd4311d967c2631ce1f76c532,PennController,32,0,Experiment,NULL,PennController,32,_Trial_,Start,1673715834255,16,4,licensed,DIk,NULL
1673715880,74f9c24bd4311d967c2631ce1f76c532,PennController,32,0,Experiment,NULL,Text,FlashSentence,Print,NA,1673715834522,16,4,licensed,DIk,NULL
1673715880,74f9c24bd4311d967c2631ce1f76c532,PennController,32,0,Experiment,NULL,Scale,q,Choice,4,1673715838294,16,4,licensed,DIk,NULL
1673715880,74f9c24bd4311d967c2631ce1f76c532,PennController,32,0,Experiment,NULL,PennController,32,_Trial_,End,1673715838302,16,4,licensed,DIk,NULL
# 13. Comments.
1673715880,74f9c24bd4311d967c2631ce1f76c532,PennController,10,0,Filler,NULL,PennController,10,_Trial_,Start,1673715838309,NULL
1673715880,74f9c24bd4311d967c2631ce1f76c532,PennController,10,0,Filler,NULL,Text,FlashSentence,Print,NA,1673715838580,NULL
1673715880,74f9c24bd4311d967c2631ce1f76c532,PennController,10,0,Filler,NULL,Scale,q,Choice,4,1673715841341,NULL
1673715880,74f9c24bd4311d967c2631ce1f76c532,PennController,10,0,Filler,NULL,PennController,10,_Trial_,End,1673715841353,NULL
# 13. Item.
# 14. Group.
# 15. License Type.
# 16. nominalizer.
# 17. Comments.
1673715880,74f9c24bd4311d967c2631ce1f76c532,PennController,27,0,Experiment,NULL,PennController,27,_Trial_,Start,1673715841361,11,4,long-distance,DIk,NULL
1673715880,74f9c24bd4311d967c2631ce1f76c532,PennController,27,0,Experiment,NULL,Text,FlashSentence,Print,NA,1673715841632,11,4,long-distance,DIk,NULL
1673715880,74f9c24bd4311d967c2631ce1f76c532,PennController,27,0,Experiment,NULL,Scale,q,Choice,1,1673715844805,11,4,long-distance,DIk,NULL
1673715880,74f9c24bd4311d967c2631ce1f76c532,PennController,27,0,Experiment,NULL,PennController,27,_Trial_,End,1673715844815,11,4,long-distance,DIk,NULL
1673715880,74f9c24bd4311d967c2631ce1f76c532,PennController,19,0,Experiment,NULL,PennController,19,_Trial_,Start,1673715844822,3,4,unlicensed,mA,NULL
1673715880,74f9c24bd4311d967c2631ce1f76c532,PennController,19,0,Experiment,NULL,Text,FlashSentence,Print,NA,1673715845089,3,4,unlicensed,mA,NULL
1673715880,74f9c24bd4311d967c2631ce1f76c532,PennController,19,0,Experiment,NULL,Scale,q,Choice,1,1673715847194,3,4,unlicensed,mA,NULL
1673715880,74f9c24bd4311d967c2631ce1f76c532,PennController,19,0,Experiment,NULL,PennController,19,_Trial_,End,1673715847206,3,4,unlicensed,mA,NULL
# 13. Comments.
1673715880,74f9c24bd4311d967c2631ce1f76c532,PennController,8,0,Filler,NULL,PennController,8,_Trial_,Start,1673715847216,NULL
1673715880,74f9c24bd4311d967c2631ce1f76c532,PennController,8,0,Filler,NULL,Text,FlashSentence,Print,NA,1673715847486,NULL
1673715880,74f9c24bd4311d967c2631ce1f76c532,PennController,8,0,Filler,NULL,Scale,q,Choice,4,1673715851005,NULL
1673715880,74f9c24bd4311d967c2631ce1f76c532,PennController,8,0,Filler,NULL,PennController,8,_Trial_,End,1673715851010,NULL
# 13. Item.
# 14. Group.
# 15. License Type.
# 16. nominalizer.
# 17. Comments.
1673715880,74f9c24bd4311d967c2631ce1f76c532,PennController,20,0,Experiment,NULL,PennController,20,_Trial_,Start,1673715851015,4,4,licensed,DIk,NULL
1673715880,74f9c24bd4311d967c2631ce1f76c532,PennController,20,0,Experiment,NULL,Text,FlashSentence,Print,NA,1673715851284,4,4,licensed,DIk,NULL
1673715880,74f9c24bd4311d967c2631ce1f76c532,PennController,20,0,Experiment,NULL,Scale,q,Choice,4,1673715853549,4,4,licensed,DIk,NULL
1673715880,74f9c24bd4311d967c2631ce1f76c532,PennController,20,0,Experiment,NULL,PennController,20,_Trial_,End,1673715853558,4,4,licensed,DIk,NULL
1673715880,74f9c24bd4311d967c2631ce1f76c532,PennController,22,0,Experiment,NULL,PennController,22,_Trial_,Start,1673715853565,6,4,unlicensed,DIk,NULL
1673715880,74f9c24bd4311d967c2631ce1f76c532,PennController,22,0,Experiment,NULL,Text,FlashSentence,Print,NA,1673715853834,6,4,unlicensed,DIk,NULL
1673715880,74f9c24bd4311d967c2631ce1f76c532,PennController,22,0,Experiment,NULL,Scale,q,Choice,1,1673715857141,6,4,unlicensed,DIk,NULL
1673715880,74f9c24bd4311d967c2631ce1f76c532,PennController,22,0,Experiment,NULL,PennController,22,_Trial_,End,1673715857154,6,4,unlicensed,DIk,NULL
# 13. Comments.
1673715880,74f9c24bd4311d967c2631ce1f76c532,PennController,14,0,Filler,NULL,PennController,14,_Trial_,Start,1673715857160,NULL
1673715880,74f9c24bd4311d967c2631ce1f76c532,PennController,14,0,Filler,NULL,Text,FlashSentence,Print,NA,1673715857426,NULL
1673715880,74f9c24bd4311d967c2631ce1f76c532,PennController,14,0,Filler,NULL,Scale,q,Choice,1,1673715859937,NULL
1673715880,74f9c24bd4311d967c2631ce1f76c532,PennController,14,0,Filler,NULL,PennController,14,_Trial_,End,1673715859948,NULL
# 13. Item.
# 14. Group.
# 15. License Type.
# 16. nominalizer.
# 17. Comments.
1673715880,74f9c24bd4311d967c2631ce1f76c532,PennController,33,0,Experiment,NULL,PennController,33,_Trial_,Start,1673715859956,17,4,long-distance,DIk,NULL
1673715880,74f9c24bd4311d967c2631ce1f76c532,PennController,33,0,Experiment,NULL,Text,FlashSentence,Print,NA,1673715860225,17,4,long-distance,DIk,NULL
1673715880,74f9c24bd4311d967c2631ce1f76c532,PennController,33,0,Experiment,NULL,Scale,q,Choice,1,1673715867057,17,4,long-distance,DIk,NULL
1673715880,74f9c24bd4311d967c2631ce1f76c532,PennController,33,0,Experiment,NULL,PennController,33,_Trial_,End,1673715867070,17,4,long-distance,DIk,NULL
1673715880,74f9c24bd4311d967c2631ce1f76c532,PennController,29,0,Experiment,NULL,PennController,29,_Trial_,Start,1673715867079,13,4,licensed,mA,NULL
1673715880,74f9c24bd4311d967c2631ce1f76c532,PennController,29,0,Experiment,NULL,Text,FlashSentence,Print,NA,1673715867349,13,4,licensed,mA,NULL
1673715880,74f9c24bd4311d967c2631ce1f76c532,PennController,29,0,Experiment,NULL,Scale,q,Choice,4,1673715873757,13,4,licensed,mA,NULL
1673715880,74f9c24bd4311d967c2631ce1f76c532,PennController,29,0,Experiment,NULL,PennController,29,_Trial_,End,1673715873776,13,4,licensed,mA,NULL
# 13. Comments.
1673715880,74f9c24bd4311d967c2631ce1f76c532,PennController,13,0,Filler,NULL,PennController,13,_Trial_,Start,1673715873782,NULL
1673715880,74f9c24bd4311d967c2631ce1f76c532,PennController,13,0,Filler,NULL,Text,FlashSentence,Print,NA,1673715874042,NULL
1673715880,74f9c24bd4311d967c2631ce1f76c532,PennController,13,0,Filler,NULL,Scale,q,Choice,4,1673715876746,NULL
1673715880,74f9c24bd4311d967c2631ce1f76c532,PennController,13,0,Filler,NULL,PennController,13,_Trial_,End,1673715876758,NULL
# 13. Item.
# 14. Group.
# 15. License Type.
# 16. nominalizer.
# 17. Comments.
1673715880,74f9c24bd4311d967c2631ce1f76c532,PennController,18,0,Experiment,NULL,PennController,18,_Trial_,Start,1673715876768,2,4,long-distance,mA,NULL
1673715880,74f9c24bd4311d967c2631ce1f76c532,PennController,18,0,Experiment,NULL,Text,FlashSentence,Print,NA,1673715877039,2,4,long-distance,mA,NULL
1673715880,74f9c24bd4311d967c2631ce1f76c532,PennController,18,0,Experiment,NULL,Scale,q,Choice,1,1673715879626,2,4,long-distance,mA,NULL
1673715880,74f9c24bd4311d967c2631ce1f76c532,PennController,18,0,Experiment,NULL,PennController,18,_Trial_,End,1673715879637,2,4,long-distance,mA,NULL
#
# Results on Sat, 14 Jan 2023 17:05:51 GMT
# USER AGENT: Mozilla/5.0 (Linux; Android 9; GM 9 Pro) AppleWebKit/537.36 (KHTML, like Gecko) Chrome/109.0.0.0 Mobile Safari/537.36
# Design number was non-random = 3
#
# Columns below this comment are as follows:
# 1. Results reception time.
# 2. MD5 hash of participant's IP address.
# 3. Controller name.
# 4. Order number of item.
# 5. Inner element number.
# 6. Label.
# 7. Latin Square Group.
# 8. PennElementType.
# 9. PennElementName.
# 10. Parameter.
# 11. Value.
# 12. EventTime.
# 13. Comments.
1673715951,6a86880a8281137bcd7273156587536a,PennController,1,0,Consent,NULL,PennController,0,_Trial_,Start,1673715505011,NULL
1673715951,6a86880a8281137bcd7273156587536a,PennController,1,0,Consent,NULL,TextInput,input_name,First,,1673715521048,Unidentified
1673715951,6a86880a8281137bcd7273156587536a,PennController,1,0,Consent,NULL,TextInput,input_name,Final,Rüveydanur Şafaklar,1673715531417,NULL
1673715951,6a86880a8281137bcd7273156587536a,PennController,1,0,Consent,NULL,PennController,0,_Trial_,End,1673715531419,NULL
1673715951,6a86880a8281137bcd7273156587536a,PennController,2,0,ExpInstructions,NULL,PennController,1,_Trial_,Start,1673715531434,NULL
1673715951,6a86880a8281137bcd7273156587536a,PennController,2,0,ExpInstructions,NULL,PennController,1,_Trial_,End,1673715549444,NULL
1673715951,6a86880a8281137bcd7273156587536a,PennController,3,0,PracticeInstructions,NULL,PennController,2,_Trial_,Start,1673715549453,NULL
1673715951,6a86880a8281137bcd7273156587536a,PennController,3,0,PracticeInstructions,NULL,PennController,2,_Trial_,End,1673715551913,NULL
1673715951,6a86880a8281137bcd7273156587536a,PennController,4,0,PracticeTrial,NULL,PennController,5,_Trial_,Start,1673715551920,NULL
1673715951,6a86880a8281137bcd7273156587536a,PennController,4,0,PracticeTrial,NULL,Text,FlashSentence,Print,NA,1673715552199,NULL
1673715951,6a86880a8281137bcd7273156587536a,PennController,4,0,PracticeTrial,NULL,Scale,q,Choice,5,1673715565962,NULL
1673715951,6a86880a8281137bcd7273156587536a,PennController,4,0,PracticeTrial,NULL,PennController,5,_Trial_,End,1673715565977,NULL
1673715951,6a86880a8281137bcd7273156587536a,PennController,5,0,PracticeTrial,NULL,PennController,6,_Trial_,Start,1673715565988,NULL
1673715951,6a86880a8281137bcd7273156587536a,PennController,5,0,PracticeTrial,NULL,Text,FlashSentence,Print,NA,1673715566254,NULL
1673715951,6a86880a8281137bcd7273156587536a,PennController,5,0,PracticeTrial,NULL,Scale,q,Choice,1,1673715576464,NULL
1673715951,6a86880a8281137bcd7273156587536a,PennController,5,0,PracticeTrial,NULL,PennController,6,_Trial_,End,1673715576478,NULL
1673715951,6a86880a8281137bcd7273156587536a,PennController,6,0,PracticeTrial,NULL,PennController,7,_Trial_,Start,1673715576487,NULL
1673715951,6a86880a8281137bcd7273156587536a,PennController,6,0,PracticeTrial,NULL,Text,FlashSentence,Print,NA,1673715576764,NULL
1673715951,6a86880a8281137bcd7273156587536a,PennController,6,0,PracticeTrial,NULL,Scale,q,Choice,2,1673715638435,NULL
1673715951,6a86880a8281137bcd7273156587536a,PennController,6,0,PracticeTrial,NULL,PennController,7,_Trial_,End,1673715638443,NULL
1673715951,6a86880a8281137bcd7273156587536a,PennController,7,0,expstarts,NULL,PennController,3,_Trial_,Start,1673715638450,NULL
1673715951,6a86880a8281137bcd7273156587536a,PennController,7,0,expstarts,NULL,PennController,3,_Trial_,End,1673715643470,NULL
# 13. Item.
# 14. Group.
# 15. License Type.
# 16. nominalizer.
# 17. Comments.
1673715951,6a86880a8281137bcd7273156587536a,PennController,18,0,Experiment,NULL,PennController,18,_Trial_,Start,1673715643479,2,4,long-distance,mA,NULL
1673715951,6a86880a8281137bcd7273156587536a,PennController,18,0,Experiment,NULL,Text,FlashSentence,Print,NA,1673715643753,2,4,long-distance,mA,NULL
1673715951,6a86880a8281137bcd7273156587536a,PennController,18,0,Experiment,NULL,Scale,q,Choice,2,1673715671729,2,4,long-distance,mA,NULL
1673715951,6a86880a8281137bcd7273156587536a,PennController,18,0,Experiment,NULL,PennController,18,_Trial_,End,1673715671741,2,4,long-distance,mA,NULL
# 13. Comments.
1673715951,6a86880a8281137bcd7273156587536a,PennController,15,0,Filler,NULL,PennController,15,_Trial_,Start,1673715671752,NULL
1673715951,6a86880a8281137bcd7273156587536a,PennController,15,0,Filler,NULL,Text,FlashSentence,Print,NA,1673715672020,NULL
1673715951,6a86880a8281137bcd7273156587536a,PennController,15,0,Filler,NULL,Scale,q,Choice,1,1673715679491,NULL
